"Time (s)","Linear Acceleration x (m/s^2)","Linear Acceleration y (m/s^2)","Linear Acceleration z (m/s^2)"
4.657273300E-2,8.433962613E-2,9.513555467E-2,4.867935181E-2
5.658249800E-2,1.757984608E-2,-2.862579376E-2,2.932834625E-2
6.662278200E-2,8.588664234E-3,-3.981329501E-2,-3.355979919E-3
7.663254700E-2,7.254528999E-2,3.868423402E-2,-5.268478394E-2
8.664231300E-2,9.784016013E-2,1.009830087E-2,-4.807472229E-3
9.668259600E-2,3.299370408E-2,-2.280630916E-2,2.481555939E-2
1.066923620E-1,-1.250556111E-2,-2.964457124E-2,2.365112305E-2
1.167326450E-1,-6.835791469E-2,-3.756050020E-2,-2.372837067E-2
1.267424110E-1,-4.296207428E-2,-1.124329120E-2,-8.518218994E-3
1.367521760E-1,2.940280735E-2,-2.207690477E-2,2.368450165E-2
1.467924590E-1,2.091194689E-2,3.076130897E-2,4.817867279E-2
1.568022250E-1,7.144179940E-2,1.312626898E-2,-1.855659485E-2
1.668425080E-1,5.555889010E-2,-2.194679528E-2,-2.084827423E-2
1.768522740E-1,7.863834500E-2,3.631081432E-2,-7.058334351E-2
1.868925570E-1,4.668352008E-2,9.189675748E-2,-3.741645813E-2
1.969023230E-1,1.640965194E-1,7.046413422E-2,-1.189928055E-1
2.069120880E-1,-1.677875370E-1,-8.792780340E-3,9.370613098E-2
2.169218540E-1,5.786076188E-2,-1.343996823E-1,-4.933643341E-2
2.269621370E-1,-1.051716805E-1,-1.646376997E-1,5.961990356E-2
2.369719030E-1,5.388036370E-3,-7.759027183E-2,1.437854767E-2
2.470121860E-1,-4.720346630E-2,2.251997590E-3,3.436756134E-2
2.570219520E-1,3.944240510E-2,2.716717124E-2,2.557182312E-2
2.670317170E-1,-2.304305136E-1,1.271239966E-1,1.482114792E-1
2.770720000E-1,-7.847771049E-4,1.842423528E-1,-1.621627808E-2
2.870817660E-1,6.476378441E-2,2.362132072E-3,-5.264282227E-2
2.971220490E-1,3.888144344E-2,-1.839706302E-2,5.491256714E-3
3.071318150E-1,7.781115919E-2,2.713531256E-3,3.767490387E-2
3.171415800E-1,5.389827490E-2,9.765800834E-2,-3.347301483E-2
3.271818640E-1,-3.424306214E-2,4.055716097E-2,6.389617920E-5
3.371916290E-1,-6.489671767E-2,-2.454939485E-2,-7.000732422E-2
3.472013950E-1,9.460199624E-2,-1.892861724E-2,-2.157211304E-3
3.572416780E-1,1.475839317E-1,3.461585939E-2,6.796741486E-2
3.672514440E-1,-2.149772346E-1,-2.030482888E-2,-1.919479370E-1
3.772612090E-1,-3.935650736E-2,3.464032710E-2,-3.288269043E-3
3.872709750E-1,-4.530452192E-3,2.530831099E-2,9.817123413E-3
3.973112580E-1,1.137076989E-1,2.080485225E-3,-4.147529602E-2
4.073210240E-1,-3.514742106E-2,2.567447722E-2,-2.205657959E-2
4.173613070E-1,-7.686974853E-2,5.323657393E-2,4.022026062E-2
4.273710730E-1,8.580878377E-3,2.820178866E-2,-3.137588501E-3
4.373808380E-1,-2.993194759E-2,-2.430208027E-2,-4.525184631E-2
4.474211210E-1,-3.942682594E-2,-1.480175555E-2,-2.048969269E-2
4.574308870E-1,-6.972037256E-3,-1.073512435E-2,-1.970863342E-2
4.674711700E-1,-1.688998938E-2,7.670238614E-3,1.871490479E-2
4.774809360E-1,-2.140961587E-3,1.652337611E-2,5.078792572E-2
4.875212190E-1,1.652394980E-2,2.101953328E-2,1.669979095E-2
4.975309850E-1,2.595036477E-2,6.578177214E-3,-2.121448517E-2
5.075407500E-1,1.607177407E-2,7.235020399E-2,-6.319046021E-2
5.175505160E-1,1.213125885E-3,-1.462712884E-2,1.831722260E-2
5.275907990E-1,2.371706069E-2,-6.727667153E-2,-4.374313354E-2
5.376005650E-1,-3.441268951E-2,-7.585343719E-2,8.454895020E-2
5.476408480E-1,-1.047766954E-2,-5.004201829E-2,9.233570099E-2
5.576811310E-1,-2.400995791E-2,-8.489951491E-3,2.009868622E-2
5.676908970E-1,3.899337351E-2,2.858184278E-2,5.793380737E-2
5.777006620E-1,4.446043819E-2,-2.369400859E-2,3.809928894E-2
5.877104280E-1,4.968293011E-2,6.256735325E-2,3.788185120E-2
5.977507110E-1,6.770730019E-3,3.994582593E-2,1.830673218E-2
6.077604770E-1,-1.085675508E-2,1.318363845E-2,4.021644592E-3
6.177702430E-1,4.509910941E-4,-5.495238304E-2,-1.490497589E-2
6.278105260E-1,-5.131103098E-2,7.704198360E-4,2.821922302E-2
6.378202910E-1,-2.582816780E-2,1.765590906E-2,-1.907444000E-2
6.478300570E-1,-6.267949939E-3,-1.714369655E-2,4.291343689E-2
6.578703400E-1,8.782856166E-3,1.525691152E-2,9.147644043E-3
6.678801060E-1,8.888129890E-2,-1.382669806E-2,-3.783512115E-2
6.778898710E-1,1.138626039E-2,-8.062371612E-2,-3.686809540E-2
6.879301550E-1,-3.139753640E-2,-6.222996116E-2,-1.228046417E-2
6.979399200E-1,-4.408593476E-2,3.534498811E-2,-1.623344421E-2
7.079802040E-1,1.925349236E-2,3.207424283E-2,-4.433059692E-2
7.179899690E-1,3.362802416E-2,1.945346594E-2,2.734756470E-2
7.279997350E-1,2.342105657E-2,1.233783364E-2,2.254772186E-2
7.380400180E-1,-4.839920998E-2,1.631546021E-2,6.037425995E-2
7.480497840E-1,-9.751521051E-3,4.003584385E-2,2.141475677E-2
7.580595490E-1,-1.338593662E-2,-4.026514292E-2,2.165412903E-2
7.680998320E-1,-3.136589378E-2,-1.518782973E-2,-3.523826599E-2
7.781095980E-1,-1.639783382E-2,-3.798624873E-2,-1.520824432E-2
7.881193640E-1,-6.725670397E-2,-1.748019457E-2,4.344940186E-3
7.981596470E-1,-2.584989369E-2,1.218676567E-2,3.787040710E-2
8.081694120E-1,2.940819412E-2,5.153429508E-2,5.204772949E-2
8.182096960E-1,3.597372025E-2,5.218911171E-2,-1.457595825E-2
8.282194610E-1,-1.089242101E-2,-3.950476646E-3,-2.331256866E-2
8.382292270E-1,6.140676886E-2,4.981079698E-2,1.047801971E-2
8.482695100E-1,2.776183933E-2,-1.044014096E-2,4.870223999E-2
8.582792760E-1,-4.815611988E-2,-4.084554315E-2,3.452205658E-2
8.682890410E-1,-3.256481886E-2,-2.740976214E-2,3.923988342E-2
8.782988070E-1,-6.391581893E-2,1.552963257E-2,2.044582367E-2
8.883390900E-1,-4.781440645E-2,4.457950592E-2,-4.536819458E-2
8.983488560E-1,1.644447446E-3,5.393946171E-2,-2.454757690E-2
9.083586210E-1,-1.646807417E-2,2.368158102E-2,-2.367019653E-2
9.183989050E-1,3.155898303E-2,2.157449722E-3,-4.170513153E-2
9.284086700E-1,-6.300989538E-3,2.642858028E-2,-7.328319550E-2
9.384489540E-1,-1.158855855E-3,2.695447206E-2,4.196739197E-2
9.484587190E-1,-1.045300066E-2,-3.848433495E-2,1.329326630E-2
9.584990020E-1,1.319150627E-2,-3.634899855E-2,-5.367279053E-3
9.685087680E-1,-1.500196010E-2,-3.870093822E-2,2.875995636E-2
9.786406040E-1,8.617881685E-3,-1.676791906E-2,3.395557404E-2
9.886808870E-1,2.142628655E-2,-4.314184189E-3,4.840850830E-2
1.003573465E0,1.915740967E-2,3.355276585E-2,1.560783386E-2
1.018557596E0,-1.444359124E-2,4.389232397E-2,3.106212616E-2
1.028658914E0,-2.339538187E-2,-9.718537331E-3,-2.077102661E-2
1.038699198E0,-2.686417103E-2,3.140270710E-3,-2.880382538E-2
1.048708963E0,-2.052676678E-2,-3.647506237E-3,6.712532043E-2
1.058718729E0,-4.838994890E-2,-5.230963230E-3,-4.023551941E-3
1.068728495E0,-1.019288227E-2,4.113262892E-2,6.772613525E-2
1.078768778E0,8.708819747E-3,3.139191866E-2,3.919792175E-2
1.088778543E0,3.714876994E-2,1.320952177E-2,1.771926880E-3
1.098788309E0,2.286536247E-2,5.416226387E-2,5.973720551E-2
1.108798075E0,-1.554470137E-2,4.868286848E-2,-2.976799011E-2
1.118838358E0,1.236194000E-2,-1.657754183E-2,-2.764797211E-2
1.128848123E0,-9.258455038E-2,-5.326688290E-3,-6.325244904E-2
1.138888407E0,-3.035674989E-2,4.976749420E-3,-1.320171356E-2
1.148898172E0,7.075801492E-3,2.361750603E-2,-2.060222626E-2
1.158907938E0,-1.457629353E-2,3.138142824E-2,-3.747177124E-2
1.168948221E0,-2.120558918E-2,-2.777558565E-2,-2.081394196E-2
1.178957987E0,-5.442818999E-2,-4.325252771E-2,3.290748596E-2
1.188967752E0,-1.059033722E-2,-5.950331688E-3,5.882263184E-3
1.199008036E0,9.722650051E-3,5.111056566E-2,5.949497223E-2
1.209017801E0,2.410731465E-2,4.214012623E-2,3.662395477E-2
1.219027567E0,5.247667432E-4,1.068139076E-2,9.825706482E-3
1.229067850E0,-3.239198774E-2,-1.604557037E-2,-7.352828979E-2
1.239077616E0,-1.293175668E-2,6.551921368E-2,-1.782798767E-2
1.249087381E0,-1.708887517E-2,1.758813858E-2,-1.533412933E-2
1.259127664E0,-6.809647381E-2,-6.072640419E-3,3.449440002E-2
1.269137430E0,-8.818456531E-2,3.737533092E-2,6.427288055E-2
1.279147196E0,-3.684302792E-2,2.419197559E-2,2.800369263E-2
1.289187479E0,-3.855974972E-2,2.710342407E-2,3.014659882E-2
1.299197245E0,1.111355424E-2,5.504596233E-2,6.552600861E-2
1.309237528E0,3.143753856E-3,8.342504501E-3,3.423309326E-2
1.319247293E0,2.301186696E-2,5.723750591E-2,-4.362964630E-2
1.329257059E0,4.182628915E-2,1.564979553E-2,7.463455200E-3
1.339297342E0,-2.147839218E-2,2.178168297E-2,5.759239197E-3
1.349307108E0,-6.990303099E-2,-2.335214615E-2,4.231071472E-2
1.359316873E0,-6.467580795E-2,1.383316517E-2,5.440902710E-2
1.369357157E0,1.444809139E-3,7.611155510E-2,2.902030945E-2
1.379366922E0,-4.530280828E-3,3.057599068E-2,1.398944855E-2
1.389376688E0,-1.040285453E-2,2.521288395E-2,7.032775879E-2
1.399416971E0,-1.544032246E-3,3.400897980E-2,-5.807495117E-2
1.409426737E0,7.392302155E-3,5.655944347E-2,-3.814315796E-2
1.419467020E0,2.542383596E-2,3.572118282E-2,-3.745746613E-2
1.429476786E0,1.896765828E-2,5.169749260E-3,9.965896606E-4
1.439486551E0,-4.458791763E-2,2.671349049E-2,-3.649044037E-2
1.449526834E0,1.104164496E-2,7.133293152E-2,-2.610778809E-2
1.459567118E0,-4.340634122E-2,6.272232533E-2,-4.906845093E-2
1.469637918E0,-6.431587040E-2,1.596927643E-3,-8.094978333E-2
1.484530496E0,-3.805869073E-2,2.450406551E-2,-1.038360596E-2
1.494570780E0,-1.670330018E-2,-2.316653728E-2,4.195213318E-3
1.504611063E0,-1.480867714E-2,3.442251682E-2,2.826309204E-2
1.514651346E0,-2.252357453E-2,1.593601704E-2,-1.434707642E-2
1.524691629E0,-4.413228482E-2,4.991352558E-2,-4.109382629E-3
1.534701395E0,-1.772004366E-2,5.529189110E-2,5.875682831E-2
1.544711161E0,-2.847468108E-2,-1.845359802E-4,-3.114223480E-2
1.554720926E0,-4.830630124E-2,-6.740093231E-3,-2.478027344E-2
1.564791727E0,-1.979627460E-2,1.484429836E-2,1.523399353E-2
1.579806375E0,1.766627282E-2,3.023767471E-2,-9.847545624E-2
1.589816141E0,6.434565037E-2,1.505494118E-2,-6.758594513E-2
1.599825907E0,4.846426100E-2,8.462429047E-3,-5.184555054E-2
1.609866190E0,3.204073012E-2,2.938246727E-2,6.720542908E-3
1.619875955E0,1.174807549E-2,2.633452415E-2,1.220130920E-2
1.629916239E0,5.382487923E-2,4.227614403E-2,2.249717712E-2
1.639926004E0,-1.339434832E-2,-2.931594849E-3,6.095600128E-2
1.649935770E0,-7.830141485E-2,-2.220106125E-2,4.271697998E-2
1.659945536E0,-5.166557431E-2,-3.557348251E-2,-3.692054749E-2
1.669985819E0,-1.148425788E-2,4.553508759E-2,-1.101102829E-1
1.680026102E0,-2.448953688E-2,1.630973816E-2,-2.140235901E-2
1.695010233E0,3.252530098E-2,5.691528320E-2,-6.097793579E-3
1.705050516E0,-2.070249617E-2,1.245379448E-2,1.959609985E-2
1.715060282E0,-6.925659627E-2,1.031210423E-1,8.788490295E-2
1.725070047E0,-6.619059294E-2,4.741406441E-2,2.803802490E-2
1.735110330E0,-7.218217105E-2,-8.153438568E-2,3.528213501E-2
1.745150614E0,-9.584224224E-2,-5.525231361E-2,1.056289673E-2
1.755160379E0,-8.525012434E-2,-2.412390709E-2,-4.205703735E-3
1.765170145E0,2.032282203E-2,2.107429504E-2,-5.124282837E-2
1.775210428E0,5.781861395E-2,2.789258957E-2,-4.579925537E-2
1.785220194E0,2.313335985E-2,4.846239090E-2,-2.619171143E-2
1.795229959E0,1.740448922E-2,4.875683784E-2,-4.950237274E-2
1.805270243E0,-2.139650285E-2,3.436565399E-2,-1.055908203E-2
1.815280008E0,-6.978238374E-2,-3.739953041E-2,-5.354118347E-2
1.825289774E0,-6.528200954E-2,-4.034757614E-3,-7.419586182E-4
1.835330057E0,-2.712927759E-2,-6.046295166E-4,-9.157085419E-2
1.845339823E0,6.371334195E-2,3.499984741E-2,-1.522350311E-2
1.855349588E0,5.805318803E-2,2.695560455E-2,3.206825256E-2
1.865389871E0,2.796217054E-2,1.425862312E-2,-6.597518921E-3
1.875399637E0,2.219244093E-2,2.099776268E-2,1.706027985E-2
1.885439920E0,-5.011093616E-2,2.369403839E-2,-2.094459534E-2
1.895449686E0,2.408213913E-3,-1.586699486E-2,3.442764282E-3
1.905489969E0,-6.538446248E-2,3.607320786E-2,-1.948833466E-2
1.915499735E0,-6.075948477E-2,-3.057003021E-3,-4.719352722E-2
1.925509500E0,-3.199469298E-2,5.752563477E-3,-4.110527039E-2
1.935519266E0,-6.986999512E-2,-3.777360916E-2,8.036613464E-3
1.945559549E0,-3.105005622E-2,8.140516281E-2,9.399414062E-3
1.955569315E0,3.106844425E-2,7.620835304E-2,6.243705750E-3
1.965609598E0,-2.252204716E-2,8.547973633E-2,1.762104034E-2
1.975619364E0,-3.351904452E-3,-2.001500130E-2,-5.200004578E-2
1.985629129E0,3.523626179E-2,7.465934753E-2,-4.045009613E-2
1.995669412E0,1.514510065E-2,1.531181335E-1,-5.174636841E-3
2.005679178E0,-2.911525220E-2,6.065130234E-3,-7.971096039E-2
2.015719461E0,-4.018055648E-2,2.663612366E-2,-5.413818359E-2
2.025729227E0,-6.025338173E-2,9.813094139E-2,-3.383064270E-2
2.035769510E0,-2.229914814E-2,-1.788854599E-2,-7.593059540E-2
2.045779276E0,-4.592368007E-2,3.785753250E-2,-3.217029572E-2
2.055789041E0,4.585216194E-2,-6.874322891E-3,1.613807678E-2
2.065798807E0,-1.149754971E-2,-7.507085800E-3,4.090881348E-2
2.075839090E0,-1.549054682E-2,-3.079605103E-2,4.099845886E-3
2.085848856E0,-1.453892887E-2,-2.433848381E-2,5.377101898E-2
2.095889139E0,-3.807082027E-2,-2.666711807E-3,-1.069831848E-2
2.105898905E0,-5.307856202E-2,-2.395343781E-2,-3.663539886E-2
2.115939188E0,-7.878115028E-2,-3.663706779E-2,-1.342563629E-1
2.125948954E0,-1.372061372E-1,-5.075192451E-2,-7.924747467E-2
2.135958719E0,-5.722300708E-2,-3.298211098E-2,-7.746028900E-2
2.145968485E0,4.847235233E-2,4.003429413E-2,-5.730819702E-2
2.156008768E0,6.307816505E-2,1.125979424E-2,-4.725933075E-2
2.166018534E0,2.466535568E-2,2.027559280E-2,1.515483856E-2
2.176028299E0,-2.355257422E-2,-3.278970718E-3,5.375576019E-2
2.186068582E0,-3.388661146E-2,-4.513168335E-2,6.599426270E-3
2.196078348E0,-7.648766041E-4,-5.790829659E-2,-5.441665649E-2
2.206118631E0,-7.788047940E-2,-2.776598930E-2,-5.779743195E-2
2.216128397E0,-6.429082900E-2,-2.659368515E-2,-6.118106842E-2
2.226138162E0,-9.874831885E-2,1.222896576E-2,-1.269083023E-1
2.236178446E0,-5.175533891E-2,1.069304943E-1,-9.235572815E-2
2.246188211E0,1.878423989E-2,1.368582249E-1,-6.770801544E-2
2.256197977E0,-1.531578600E-2,1.217086315E-1,-8.139610291E-2
2.266238260E0,-4.856554419E-2,7.783627510E-2,-1.451969147E-2
2.276248026E0,-4.798980802E-2,4.408121109E-2,8.519172668E-3
2.286257791E0,-5.267447233E-2,4.397535324E-2,2.575874329E-3
2.296298075E0,-5.880314112E-2,4.338550568E-2,-1.309700012E-1
2.306307840E0,-4.627522081E-2,3.208875656E-2,-7.801723480E-2
2.316317606E0,1.357831061E-2,-2.784967422E-2,-4.578399658E-2
2.326357889E0,6.291127205E-2,-7.732343674E-2,3.363132477E-2
2.336367655E0,1.082379967E-1,-9.090232849E-2,1.736669540E-1
2.346377420E0,7.358297706E-2,-1.475772858E-1,2.379016876E-1
2.356417704E0,8.308270574E-2,-3.285503387E-2,2.133617401E-1
2.366427469E0,-1.137975603E-2,7.396364212E-2,6.315994263E-2
2.376467752E0,-4.616065323E-2,5.434751511E-2,-6.356525421E-2
2.386477518E0,-3.772370517E-2,1.443886757E-1,-1.031866074E-1
2.396487284E0,2.390593290E-3,2.222933769E-1,-2.848911285E-2
2.406527567E0,-3.056599945E-2,6.659555435E-2,-4.036521912E-2
2.416567850E0,-6.863804162E-2,-5.754327774E-2,4.752159119E-2
2.426577616E0,-1.288810372E-1,-1.389741898E-2,-4.066467285E-2
2.436587381E0,-1.266807616E-1,6.723499298E-2,-3.727722168E-2
2.446597147E0,-9.205882251E-2,7.492685318E-2,-9.070777893E-2
2.456637430E0,-1.059397459E-1,9.529733658E-2,-1.689977646E-1
2.466647196E0,-9.683355689E-2,7.309341431E-2,-2.695379257E-1
2.476656961E0,3.587477654E-2,2.262802124E-1,-1.864395142E-1
2.486697245E0,-2.905792743E-2,1.383724213E-1,-3.552942276E-1
2.496737528E0,2.684097737E-2,3.018331528E-2,-2.309398651E-1
2.506747293E0,2.471707761E-2,3.988027573E-2,-2.250165939E-1
2.516757059E0,1.875381917E-2,1.100683212E-2,-2.075433731E-1
2.526766825E0,6.087512523E-2,-6.501388550E-2,-1.972265244E-1
2.536807108E0,-3.508535028E-2,-8.692312241E-2,-1.744184494E-1
2.546816873E0,-6.523728371E-4,-1.069593430E-1,-1.723089218E-1
2.556826639E0,-6.117282063E-2,-9.114265442E-2,-1.713199615E-1
2.566866922E0,-6.793387234E-2,-8.701610565E-2,-8.082866669E-2
2.576876688E0,-6.472381949E-2,-5.616903305E-2,-1.156091690E-1
2.586916971E0,-4.265011847E-2,6.719589233E-3,-5.539798737E-2
2.596926737E0,-5.401823670E-2,5.873727798E-2,-7.705211639E-2
2.606967020E0,-5.627235025E-2,4.631185532E-2,-8.928108215E-2
2.616976786E0,-3.355201334E-2,7.478237152E-2,-6.339550018E-2
2.626986551E0,-5.918545276E-2,5.876779556E-2,-5.767822266E-2
2.637026834E0,5.949236453E-3,7.479476929E-2,-2.918052673E-2
2.647036600E0,-7.528662682E-4,6.599807739E-2,-7.514953613E-4
2.657046366E0,-3.173355013E-2,-1.848077774E-2,-4.429817200E-2
2.667086649E0,-9.142502397E-2,-2.849578857E-3,-1.597118378E-2
2.677096414E0,-1.036865413E-1,-2.093553543E-2,-2.608013153E-2
2.687106180E0,-1.075663939E-1,1.317358017E-2,2.118015289E-2
2.697146463E0,-5.523047596E-2,8.727073669E-3,4.360580444E-2
2.707156229E0,-3.251442313E-2,1.935958862E-4,-2.381801605E-2
2.717165995E0,1.911105961E-2,1.992988586E-2,-5.289936066E-2
2.727206278E0,-2.002693713E-2,4.329347610E-2,-2.959728241E-2
2.737216043E0,1.375596225E-2,5.123782158E-2,-1.149559021E-2
2.747256327E0,4.815444350E-3,4.371976852E-2,1.448631287E-3
2.757266092E0,-3.312092274E-2,2.555608749E-3,-4.696846008E-3
2.767275858E0,-3.764357418E-2,-1.954483986E-2,3.555297852E-3
2.777316141E0,-3.281263262E-2,-4.579806328E-2,3.137016296E-2
2.787325907E0,-2.859687805E-2,-5.190443993E-2,3.081703186E-2
2.797366190E0,-9.074945748E-2,-1.478242874E-2,3.542041779E-2
2.807375955E0,-4.657588899E-3,-2.481126785E-2,2.245903015E-3
2.817385721E0,-4.292413592E-2,3.679513931E-3,-1.140975952E-2
2.827395487E0,1.062534004E-2,1.807999611E-2,5.161666870E-2
2.837435770E0,1.146992296E-2,8.810281754E-3,-4.739761353E-3
2.847445536E0,-4.046655446E-2,9.451866150E-3,-1.759433746E-2
2.857455301E0,-6.376961619E-2,2.973294258E-2,-1.447677612E-3
2.867495584E0,-5.836464465E-3,3.192830086E-2,6.768512726E-2
2.877505350E0,-6.591975689E-3,-3.258705139E-3,1.297473907E-2
2.887515116E0,1.196353883E-2,-4.699921608E-2,7.350349426E-2
2.897555399E0,2.623219788E-2,-1.816391945E-2,5.296707153E-2
2.907595682E0,7.159844041E-3,1.117444038E-2,6.627178192E-2
2.917605448E0,-1.687493920E-2,3.546476364E-3,2.764892578E-2
2.927615213E0,-1.339004934E-2,-3.213405609E-3,3.721237183E-2
2.937655496E0,-6.216982007E-2,-6.152057648E-2,8.065986633E-2
2.947665262E0,2.839618921E-2,-5.184721947E-2,6.222248077E-2
2.957675028E0,-4.382222146E-2,-3.727841377E-2,-2.763271332E-2
2.967684793E0,-5.405418575E-3,-3.233909607E-2,-2.496719360E-3
2.977725077E0,-1.494683325E-2,-2.289319038E-2,-1.354217529E-3
2.987765360E0,-2.929626405E-2,2.462410927E-2,-2.402210236E-2
2.997775125E0,1.463374496E-2,1.466441154E-2,8.715248108E-2
3.007784891E0,1.277908683E-3,5.761480331E-2,2.140903473E-2
3.017825174E0,-1.644729078E-2,7.194995880E-2,6.107044220E-2
3.027834940E0,-1.414763182E-2,2.801275253E-2,-1.880836487E-2
3.037844705E0,-1.695610583E-2,5.560016632E-2,-4.541301727E-2
3.047884989E0,-6.806378067E-2,4.420518875E-2,-1.958656311E-2
3.057894754E0,-3.310704231E-2,-4.823207855E-3,3.884506226E-2
3.067904520E0,-4.164738953E-2,-4.841208458E-2,4.423999786E-2
3.077944803E0,-4.564017430E-2,-3.441619873E-2,5.439376831E-2
3.087954569E0,-3.503104299E-2,-2.962851524E-2,1.748752594E-2
3.097994852E0,3.244594485E-2,-1.229047775E-3,6.184482574E-2
3.108004618E0,8.414141834E-3,3.951787949E-3,-2.985954285E-3
3.118014383E0,-3.882639110E-2,-9.901762009E-3,4.671764374E-2
3.128054666E0,-4.754988849E-2,-3.363513947E-2,-2.296733856E-2
3.138064432E0,1.050677150E-2,3.480911255E-5,3.617572784E-2
3.148074198E0,1.614566147E-2,4.596233368E-3,2.835941315E-2
3.158114481E0,-2.523336560E-3,-1.420426369E-2,1.602554321E-2
3.168124246E0,-5.017693713E-2,1.500844955E-2,-3.566741943E-4
3.178164530E0,-6.818914413E-2,-2.856731415E-3,4.975605011E-2
3.188174295E0,-7.160458714E-2,-5.308651924E-2,5.236148834E-2
3.198184061E0,-3.216603398E-2,-2.599668503E-2,6.439113617E-2
3.208224344E0,2.564940602E-3,2.935099602E-2,3.396034241E-2
3.218234110E0,-1.081064716E-2,-2.029490471E-2,-4.323673248E-2
3.228243875E0,-1.526985317E-2,-1.218032837E-2,4.618263245E-2
3.238253641E0,-7.547661662E-4,1.487421989E-2,2.612781525E-2
3.248293924E0,-1.464425027E-2,-7.960796356E-4,5.805206299E-2
3.258303690E0,-3.317494318E-2,3.503084183E-3,5.693244934E-2
3.268313455E0,-3.743571043E-2,2.738451958E-2,-4.366874695E-2
3.278353739E0,-2.687614039E-2,6.001591682E-2,1.311779022E-2
3.288363504E0,4.478733614E-2,4.919004440E-2,-5.391311646E-2
3.298403787E0,2.044404298E-2,2.809095383E-2,-3.005886078E-2
3.308413553E0,2.447579056E-3,-1.342630386E-2,-3.993129730E-2
3.318453836E0,4.135338590E-2,1.536297798E-2,-3.596878052E-2
3.328463602E0,-2.491223440E-2,9.911298752E-3,-1.799583435E-2
3.338473368E0,-8.066734672E-2,9.952068329E-3,4.239559174E-2
3.348513651E0,-5.009793490E-2,3.355622292E-2,5.487346649E-2
3.358645487E0,-9.633243084E-2,4.214167595E-2,-4.635906219E-2
3.368685770E0,-9.900468588E-2,5.180335045E-2,1.018524170E-2
3.383547830E0,1.542723924E-2,9.708642960E-2,1.227378845E-3
3.393588114E0,7.839474082E-2,3.512263298E-2,2.398109436E-2
3.403658914E0,1.643689349E-2,-1.013774872E-1,3.744029999E-2
3.413699198E0,3.190678731E-2,-1.588103771E-1,7.399272919E-2
3.423708963E0,2.035281062E-2,-2.550363541E-2,4.917240143E-2
3.433718729E0,1.305612922E-2,-2.014708519E-2,8.142852783E-2
3.443728495E0,2.496262267E-2,1.977658272E-2,6.661319733E-2
3.453768778E0,2.759832516E-2,-1.165628433E-3,1.908397675E-2
3.463778543E0,3.980655223E-2,-3.615784645E-2,-3.659057617E-2
3.473818827E0,-6.644000858E-2,-3.728771210E-2,-3.004264832E-2
3.483828592E0,-5.220285058E-2,-2.771210670E-2,8.580684662E-2
3.493838358E0,7.928460836E-3,7.635450363E-2,3.350639343E-2
3.503878641E0,-3.196870536E-2,2.841901779E-2,7.281970978E-2
3.513888407E0,5.244386941E-2,3.839564323E-2,7.371139526E-2
3.523928690E0,-2.493063360E-2,8.149790764E-2,4.150485992E-2
3.533938455E0,-2.070385218E-2,8.102130890E-2,-3.754806519E-2
3.543978739E0,-6.861332804E-2,8.043169975E-2,-1.613235474E-2
3.558962870E0,-4.701582342E-2,2.866744995E-2,-1.112079620E-2
3.568972635E0,-3.051654994E-2,3.117823601E-2,-2.336311340E-2
3.578982401E0,2.472641319E-2,3.703379631E-2,-2.670192719E-2
3.588992166E0,1.698658243E-2,4.643106461E-2,-7.745075226E-2
3.599032450E0,-2.495814860E-2,3.574311733E-2,-3.746795654E-2
3.609072733E0,-5.485214293E-3,1.973092556E-2,-2.199935913E-2
3.619082498E0,1.312050223E-2,-4.029047489E-2,-5.904102325E-2
3.629092264E0,1.138491184E-2,-9.088087082E-2,-4.360389709E-2
3.639132547E0,3.480099142E-2,-7.133376598E-2,-4.578590393E-3
3.649142313E0,9.661757201E-2,-1.546955109E-2,-1.402568817E-2
3.659182596E0,9.081272781E-2,-7.893037796E-2,4.281616211E-2
3.669192362E0,-4.800468683E-3,-4.641497135E-2,2.292537689E-2
3.679202127E0,-4.645561427E-2,-1.908302307E-2,3.217315674E-2
3.689211893E0,-4.416886717E-2,-7.295250893E-2,-1.067829132E-2
3.699221659E0,-2.217615768E-2,-1.258528233E-2,1.793384552E-2
3.709261942E0,2.316032723E-2,3.931045532E-3,3.986358643E-3
3.719271707E0,-1.275080815E-2,1.622331142E-2,5.609989166E-2
3.729281473E0,-1.491315663E-2,1.002240181E-2,4.631328583E-2
3.739321756E0,-1.238980889E-2,3.347694874E-2,2.250194550E-2
3.749331522E0,8.729074150E-3,1.501524448E-2,2.777767181E-2
3.759371805E0,-2.752336115E-2,6.913769245E-2,1.913928986E-2
3.769381571E0,-9.215426445E-2,2.935838699E-2,4.425239563E-2
3.779421854E0,-4.176364094E-2,1.979947090E-2,4.056358337E-2
3.789431620E0,-2.104932815E-2,-2.229094505E-3,7.499885559E-2
3.799441385E0,-2.444446087E-2,1.030409336E-2,5.732631683E-2
3.809481668E0,-2.319858223E-2,5.556702614E-3,4.464626312E-2
3.819491434E0,-5.976760015E-2,-1.784086227E-2,4.677963257E-2
3.829501200E0,-3.350427747E-2,-6.906628609E-3,6.825542450E-2
3.839602518E0,-2.923078835E-3,1.341712475E-2,-9.536743164E-4
3.849642801E0,-5.246039480E-2,5.668759346E-3,-2.673149109E-2
3.864504862E0,-1.976527646E-2,1.653909683E-3,-5.282402039E-3
3.874575662E0,-1.671697386E-2,-5.009293556E-3,1.653385162E-2
3.884615946E0,9.045233950E-3,-3.486776352E-2,4.308509827E-2
3.894656229E0,-2.011013217E-2,-6.815361977E-2,-1.581764221E-2
3.904696512E0,-2.061736397E-2,-2.887535095E-2,7.321739197E-2
3.914706278E0,1.307986490E-2,-5.638623238E-2,-1.472091675E-2
3.924716043E0,1.797091030E-2,-5.933773518E-2,4.597663879E-2
3.934725809E0,3.243793920E-2,-2.433109283E-2,4.867172241E-2
3.944766092E0,4.173318297E-2,-1.239681244E-2,4.230499268E-3
3.954806375E0,3.663977236E-2,-1.931190491E-4,3.610134125E-2
3.964846659E0,8.096542209E-3,2.080190182E-2,-9.778118134E-2
3.979861307E0,-6.720928103E-2,2.054882050E-2,-6.465625763E-2
3.989871073E0,-2.931685001E-2,2.853238583E-2,-5.528736115E-2
3.999880838E0,-4.441767931E-2,3.998446465E-2,-3.804206848E-3
4.009921121E0,-5.491669476E-2,2.726888657E-2,-1.486301422E-2
4.019930887E0,-5.085624009E-2,4.325389862E-2,2.630710602E-2
4.029940653E0,-3.668025509E-2,4.997825623E-2,5.330085754E-3
4.039980936E0,4.853029922E-2,8.447897434E-2,-2.928638458E-2
4.049990702E0,2.792274393E-2,-5.711436272E-3,-5.396652222E-2
4.060000467E0,-6.076520309E-3,1.337528229E-2,-1.694869995E-2
4.070010233E0,-2.559707128E-2,2.103531361E-2,-5.631923676E-2
4.080050516E0,-1.135423034E-2,-2.878534794E-2,4.022598267E-3
4.090060282E0,-2.537798323E-2,-5.916273594E-2,2.559661865E-3
4.100070047E0,8.445050567E-3,-3.190696239E-2,4.766750336E-2
4.110110330E0,6.595367938E-2,9.348511696E-3,3.104591370E-2
4.120150614E0,6.522417068E-2,-2.026546001E-2,4.791259766E-3
4.130160379E0,3.592648357E-2,-5.786252022E-2,6.934452057E-2
4.140170145E0,8.070329204E-3,2.869653702E-2,5.728149414E-2
4.150210428E0,-3.585573286E-4,1.653432846E-3,3.603935242E-2
4.160250711E0,-3.774703294E-2,-2.921795845E-2,-2.725982666E-2
4.170260477E0,-5.955944210E-2,-2.155303955E-3,4.788303375E-2
4.180270243E0,-4.560112953E-3,1.298189163E-3,5.524063110E-2
4.190280008E0,-9.821592271E-2,2.481347322E-2,-1.279067993E-2
4.200289774E0,-2.409246191E-2,5.370497704E-2,1.946544647E-2
4.210330057E0,2.959110588E-2,-7.576107979E-3,1.346874237E-2
4.220339823E0,-2.667884529E-2,2.217209339E-2,1.284980774E-2
4.230349588E0,3.634620085E-2,3.567874432E-3,-2.457618713E-3
4.240389871E0,5.559810996E-2,2.363407612E-2,-8.074760437E-3
4.250399637E0,2.220536396E-2,2.958232164E-2,-8.728027344E-3
4.260409403E0,8.142525330E-3,2.144443989E-2,2.858257294E-2
4.270449686E0,3.642529994E-2,-8.363127708E-4,-9.174346924E-4
4.280459452E0,-2.572157234E-2,-9.054780006E-3,-6.839752197E-3
4.290499735E0,-5.877509713E-2,-3.152310848E-2,-1.680183411E-2
4.300509500E0,-3.459199518E-2,-1.163005829E-3,4.885482788E-2
4.310549784E0,-3.990893811E-2,-3.214567900E-2,4.738330841E-2
4.320559549E0,-4.489094019E-2,-8.069872856E-2,1.332092285E-2
4.330569315E0,-3.574894369E-2,-4.299587011E-2,5.465030670E-2
4.340609598E0,3.078061529E-2,-5.219995975E-3,-2.712631226E-2
4.350619364E0,1.142073143E-2,-1.964068413E-2,2.019691467E-2
4.360629129E0,3.370444477E-2,2.383768559E-2,4.815769196E-2
4.370669412E0,2.294283919E-2,7.879734039E-5,1.392841339E-2
4.380679178E0,-3.496822342E-2,5.097985268E-4,-1.508808136E-2
4.390719461E0,-6.797485054E-2,1.436525583E-2,-4.346656799E-2
4.400729227E0,3.187867999E-2,1.705151796E-2,-1.479816437E-2
4.410738993E0,-7.193325087E-3,1.246333122E-4,-6.230354309E-2
4.420779276E0,-2.700682729E-2,1.573127508E-2,-6.208705902E-2
4.430789041E0,-4.662762210E-2,3.954470158E-2,-4.793834686E-2
4.440798807E0,-1.861459017E-2,4.751485586E-2,-4.804325104E-2
4.450839090E0,-5.789678544E-3,-2.719205618E-2,-7.218074799E-2
4.460848856E0,2.233298495E-3,-4.039466381E-3,-9.562778473E-2
4.470889139E0,-8.837379515E-3,-2.176320553E-2,-6.233882904E-2
4.480898905E0,2.958178893E-2,-1.316547394E-2,-2.442836761E-2
4.490908670E0,2.959941328E-2,-4.980146885E-3,1.665019989E-2
4.500918436E0,-1.106552780E-2,-2.087354660E-3,9.070682526E-2
4.510958719E0,2.962954715E-2,-3.085047007E-2,5.466556549E-2
4.520968485E0,7.070244290E-3,-4.264980555E-2,9.529495239E-2
4.531008768E0,4.609603435E-2,2.350008488E-2,4.541683197E-2
4.541018534E0,5.161385611E-2,-2.381354570E-2,1.066875458E-2
4.551058817E0,-1.432877872E-2,-8.307069540E-2,1.944637299E-2
4.561068582E0,-1.243982278E-2,3.845155239E-2,4.189968109E-2
4.571078348E0,1.256381720E-2,1.635777950E-2,-5.889320374E-2
4.581118631E0,-1.968294010E-2,-5.724513531E-2,4.583358765E-2
4.591128397E0,4.759892821E-3,-1.050239801E-2,6.388664246E-3
4.601138162E0,-1.425599400E-2,-1.615929604E-2,1.033782959E-2
4.611147928E0,-1.548543479E-2,8.353888988E-3,8.051204681E-2
4.621188211E0,-2.174202725E-2,3.364336491E-2,5.480480194E-2
4.631197977E0,-3.708670288E-2,-3.067374229E-2,1.145076752E-2
4.641238260E0,-3.232189268E-2,-4.602003098E-2,-1.312541962E-2
4.651248026E0,-1.338473707E-2,-3.827840090E-2,-1.785087585E-2
4.661257791E0,-7.874093950E-2,-6.069856882E-2,-6.986808777E-2
4.671298075E0,-6.611595303E-2,-6.512278318E-2,-4.598331451E-2
4.681307840E0,-4.431604221E-2,-1.389729977E-2,-1.743984222E-2
4.691348123E0,1.019833237E-2,2.955496311E-3,5.911827087E-3
4.701357889E0,6.926957984E-3,5.649894476E-3,-1.362705231E-2
4.711367655E0,-1.633179025E-3,3.228369355E-2,1.010894775E-4
4.721407938E0,6.944043189E-2,-2.977818251E-3,-3.367137909E-2
4.731417704E0,3.433884308E-2,-3.624424338E-2,7.038688660E-2
4.741427469E0,3.695525974E-2,8.108913898E-3,4.981231689E-2
4.751467752E0,4.014941305E-2,-4.625317454E-2,2.488517761E-2
4.761508036E0,-8.199306205E-3,-6.594535708E-2,3.347110748E-2
4.771517801E0,-8.906112984E-3,-8.431676030E-2,2.797412872E-2
4.781527567E0,2.394165285E-2,-1.029032171E-1,-2.948856354E-2
4.791537332E0,2.433780394E-2,-6.521400809E-2,-2.923679352E-2
4.801577616E0,-3.704081848E-2,-3.370046616E-2,-2.894401550E-2
4.811587381E0,-7.940843701E-3,1.581311226E-2,-2.415752411E-2
4.821597147E0,-1.307754405E-2,-5.920618773E-3,7.506275177E-2
4.831637430E0,1.232429873E-3,3.012689948E-2,5.456542969E-2
4.841677713E0,-4.659355804E-2,1.947763562E-2,-1.260852814E-2
4.851687479E0,-1.350521203E-2,2.853083611E-2,-3.122520447E-2
4.861697245E0,1.925649680E-2,-5.455642939E-3,-2.846717834E-3
4.871707010E0,-1.526361983E-2,-1.822203398E-3,-1.260280609E-2
4.881747293E0,2.615104988E-2,1.067987084E-2,-4.562759399E-2
4.891757059E0,-3.239296749E-2,-2.557876706E-2,-4.523181915E-2
4.901797342E0,-5.217219889E-2,-3.904312849E-2,-6.785392761E-3
4.911807108E0,-2.841087617E-2,-1.269102097E-3,-6.832599640E-2
4.921847391E0,-2.864142135E-2,-3.147944808E-2,-2.502346039E-2
4.931857157E0,2.264140546E-2,-3.375625610E-2,3.218650818E-3
4.941866922E0,4.883947223E-2,-8.461922407E-3,2.171611786E-2
4.951876688E0,5.518127233E-2,-2.564162016E-3,7.074356079E-3
4.961886454E0,7.610987127E-2,1.862296462E-2,4.405879974E-2
4.971926737E0,1.158308424E-2,-2.026706934E-3,7.643985748E-2
4.981936502E0,-1.555230469E-3,6.600439548E-2,1.223392487E-1
4.991976786E0,2.369360998E-2,1.813332736E-2,1.342878342E-1
5.002017069E0,-2.572972327E-2,-2.600659430E-2,2.763462067E-2
5.012026834E0,2.145845443E-3,-2.092620730E-2,2.725696564E-2
5.022036600E0,5.013006181E-2,-4.843080044E-2,8.108139038E-3
5.032046366E0,2.986157686E-2,-7.495492697E-2,3.405570984E-3
5.042086649E0,-5.091820285E-2,-1.641196012E-2,1.286602020E-2
5.052096414E0,6.295492500E-2,5.027082562E-2,3.395080566E-3
5.062106180E0,1.415569708E-2,-3.589057922E-2,-2.980995178E-2
5.072146463E0,-5.283061042E-2,-3.681358695E-2,-3.394222260E-2
5.082156229E0,-3.332889080E-2,4.105009139E-2,-6.669235229E-2
5.092165995E0,-4.302069917E-2,3.208620846E-2,-1.371192932E-2
5.102206278E0,-1.427587122E-3,6.114089489E-2,2.426719666E-2
5.112216043E0,2.485986426E-2,1.385182142E-2,-1.404762268E-2
5.122256327E0,-1.132280752E-2,-1.783576608E-2,9.663581848E-3
5.132266092E0,-4.199553281E-2,-1.138687134E-2,-5.688190460E-2
5.142275858E0,2.621568739E-3,-4.338796437E-2,-2.759742737E-2
5.152285623E0,-3.473242745E-2,-5.592902005E-2,-4.637527466E-2
5.162325907E0,9.213525802E-3,5.946461856E-2,6.794834137E-2
5.172335672E0,2.025198936E-2,7.947593927E-2,2.409172058E-2
5.182345438E0,1.816244051E-2,-3.186725080E-2,-9.573936462E-3
5.192385721E0,1.647251844E-2,-1.389472187E-2,-1.403045654E-2
5.202395487E0,-3.174680471E-2,1.311662793E-2,3.318595886E-2
5.212405252E0,-3.723829985E-3,2.069279552E-3,-8.111000061E-2
5.222445536E0,-2.389305830E-2,-4.748480022E-2,-4.681110382E-2
5.232485819E0,-2.134712040E-2,-3.610524535E-2,-3.152084351E-2
5.242495584E0,-1.072459668E-2,-2.560247481E-2,-2.451896667E-3
5.252535868E0,-2.490512282E-2,-4.441037774E-2,-2.617835999E-2
5.262545633E0,8.142732084E-3,-1.597321033E-2,2.132129669E-2
5.272555399E0,-2.512457222E-2,-1.075753570E-2,3.036594391E-2
5.282595682E0,1.923703402E-2,9.338378906E-3,4.874515533E-2
5.292605448E0,2.214419842E-2,2.102723718E-2,-4.364967346E-3
5.302645731E0,2.018873394E-2,3.287589550E-2,-8.909225464E-3
5.312655496E0,3.290215880E-2,-7.163360715E-3,1.508235931E-2
5.322665262E0,-3.587296605E-2,2.489003539E-2,5.327224731E-3
5.332705545E0,-1.315655559E-2,-4.898190498E-3,-9.318351746E-3
5.342715311E0,-1.531276107E-2,-3.446081281E-2,-2.330017090E-2
5.352725077E0,-2.769268304E-2,-2.591830492E-2,5.857467651E-3
5.362765360E0,-1.571578532E-2,3.423884511E-2,3.405761719E-2
5.372775125E0,6.246445328E-2,1.278814673E-2,1.944923401E-2
5.382784891E0,4.916741699E-2,-7.884413004E-3,4.738426208E-2
5.392825174E0,2.276613563E-2,-4.459187388E-3,-4.331684113E-2
5.402865457E0,-2.203004807E-2,1.316143572E-2,-4.267883301E-2
5.412875223E0,-5.295202136E-3,-2.684052289E-2,-4.189395905E-2
5.422884989E0,1.020454615E-2,-1.930986345E-2,-1.777458191E-2
5.432894754E0,-1.220133901E-2,-5.056537688E-2,-2.701091766E-2
5.442935037E0,7.509112358E-3,-5.512103438E-3,2.076530457E-2
5.452944803E0,4.035699368E-2,1.063089073E-2,-1.739978790E-2
5.462954569E0,-1.794874668E-3,-3.940424323E-2,4.911613464E-2
5.472994852E0,-1.999142766E-2,-3.161966801E-2,1.535415649E-2
5.483004618E0,2.348901331E-2,5.142341554E-2,1.515960693E-2
5.493044901E0,4.322618246E-2,1.058791578E-2,-2.251052856E-2
5.503054666E0,1.575964689E-2,-1.040308177E-2,1.092624664E-2
5.513094950E0,-1.963949203E-2,2.094522119E-3,2.982521057E-2
5.523104715E0,-1.153250039E-2,2.425044775E-2,9.984970093E-4
5.533114481E0,5.869166553E-2,-1.041010022E-3,-1.306152344E-2
5.543124246E0,8.762329817E-3,-1.186051965E-2,-8.329391479E-3
5.553134012E0,-2.119584382E-2,-3.728114069E-2,-8.153915405E-3
5.563174295E0,-5.599036813E-2,-1.984354854E-2,-2.677059174E-2
5.573184061E0,-4.226221144E-2,-7.037907839E-3,1.993179321E-3
5.583224344E0,-1.847907901E-2,3.409443796E-2,-3.058433533E-3
5.593234110E0,5.703972280E-2,1.823653281E-2,6.195068359E-3
5.603274393E0,-2.034181356E-2,1.215296984E-2,-2.220249176E-2
5.613284159E0,-3.036117554E-2,1.548623294E-2,1.711845398E-3
5.623293924E0,-3.997351229E-2,-4.249340296E-2,-7.491111755E-3
5.633334207E0,-5.810342729E-2,-5.681910366E-2,-7.654190063E-3
5.643343973E0,1.499843597E-2,-4.250249267E-2,4.004859924E-2
5.653353739E0,-1.990914345E-3,-2.283505350E-2,2.984237671E-2
5.663394022E0,-3.604522347E-2,-3.144972026E-2,7.972717285E-4
5.673403787E0,-4.955047369E-2,-6.351387501E-2,-2.263164520E-2
5.683413553E0,-6.116025150E-2,-2.300924063E-2,6.765842438E-2
5.693453836E0,-1.517638564E-2,2.101738751E-2,-4.851341248E-3
5.703463602E0,-1.775388420E-2,3.685179353E-2,-3.297996521E-2
5.713503885E0,2.284035087E-3,3.752698004E-2,-3.248977661E-2
5.723574686E0,-8.670680225E-3,8.009307086E-2,-5.093765259E-2
5.733614969E0,6.845780462E-2,4.581172764E-2,-2.628803253E-2
5.743624735E0,8.631393313E-2,6.839334965E-3,-4.916572571E-2
5.758517313E0,-3.428521752E-2,-5.070365965E-2,3.653621674E-2
5.768618631E0,-2.387998253E-2,-1.694189012E-2,2.667617798E-2
5.778658914E0,5.864650011E-4,-4.023930430E-2,-7.094383240E-3
5.788699198E0,2.967656404E-2,-3.968329728E-2,-2.095985413E-2
5.798708963E0,5.649328232E-3,-2.494123578E-2,-5.376720428E-2
5.808749246E0,2.963496000E-2,2.756473422E-2,1.327610016E-2
5.818759012E0,-8.847706020E-3,2.211171389E-2,8.146286011E-3
5.828768778E0,-9.203106165E-3,2.149969339E-2,3.421783447E-3
5.838778543E0,-1.888742298E-2,1.106637716E-2,-2.527141571E-2
5.848818827E0,-1.463210583E-2,3.388203681E-2,-5.859375000E-3
5.858828592E0,1.350650936E-2,1.417578757E-2,3.701114655E-2
5.868868875E0,-1.516816020E-2,2.801512182E-2,2.678871155E-2
5.878909159E0,3.682433069E-2,1.304192841E-2,-6.707191467E-3
5.888918924E0,3.100477904E-2,-4.432299733E-2,-5.863380432E-2
5.898928690E0,-2.281092107E-3,-1.556780189E-2,4.157733917E-2
5.908968973E0,-1.916877925E-3,5.076973140E-2,1.738071442E-2
5.918978739E0,-2.078726888E-3,2.632349730E-3,1.705169678E-2
5.928988504E0,-2.474635839E-3,-2.588857710E-2,-1.140594482E-2
5.938998270E0,-6.019506603E-2,-5.437509716E-2,2.985954285E-3
5.949008036E0,-7.439829409E-3,5.021281540E-2,2.166557312E-2
5.959048319E0,4.912312329E-2,5.856820941E-2,2.263069153E-3
5.969058084E0,4.354158044E-2,1.028119028E-2,-5.438899994E-2
5.979098368E0,-2.338127792E-2,5.765593052E-2,-3.928756714E-2
5.989108133E0,6.717954576E-2,3.292473406E-2,-1.513862610E-2
5.999148416E0,-9.514033794E-3,-8.575884998E-2,1.819801331E-2
6.009158182E0,-4.642124474E-2,-6.052440405E-2,3.991127014E-3
6.019167948E0,-7.358828932E-2,-2.169100940E-2,1.318645477E-2
6.029177713E0,-5.617998540E-3,2.106123418E-2,-5.794429779E-2
6.039217996E0,5.626024306E-2,-1.249828935E-2,9.134292603E-3
6.049227762E0,8.864998817E-3,-2.486005425E-3,6.572723389E-2
6.059296955E0,-2.270607650E-2,-1.170015335E-2,-2.515506744E-2
6.069306721E0,-2.946637571E-3,-1.159210503E-2,-7.172679901E-2
6.079316487E0,1.405730844E-3,6.873155385E-2,-2.802276611E-2
6.089326252E0,3.803744912E-4,4.877143353E-2,1.965904236E-2
6.099366535E0,-4.266170412E-2,-9.003400803E-3,1.446914673E-2
6.109376301E0,4.992485046E-3,2.413670719E-2,-9.430885315E-3
6.119416584E0,-1.470794529E-2,-4.440419376E-3,-2.366447449E-2
6.129426350E0,-5.814369768E-2,-4.628896713E-3,-9.103775024E-3
6.139436115E0,2.627998590E-3,4.215463996E-3,2.877807617E-2
6.149445881E0,-1.270708442E-2,1.803352684E-2,6.629085541E-2
6.159486164E0,-3.289565444E-3,-2.479503304E-2,-2.474403381E-2
6.169495930E0,-2.680595219E-2,1.839890331E-2,-4.329776764E-2
6.179536213E0,-2.612491697E-2,8.839733899E-3,-2.392959595E-2
6.189545979E0,-2.503321320E-2,-9.965404868E-3,4.665374756E-3
6.199586262E0,-4.361990094E-2,-3.827727586E-2,4.429817200E-3
6.209657063E0,-1.917462051E-2,2.883768827E-2,-3.824234009E-4
6.219697346E0,-1.365423203E-2,9.546101093E-3,1.865005493E-2
6.234620442E0,-8.180119097E-3,3.289771080E-2,-5.715656281E-2
6.249635090E0,4.312836379E-2,6.018374860E-2,1.430702209E-2
6.259675373E0,-5.577988923E-3,-1.178800315E-2,1.427173615E-2
6.269715656E0,-4.414582998E-2,-1.181811839E-2,-3.795337677E-2
6.279725422E0,2.499759197E-3,-2.148485929E-2,1.480197906E-2
6.289735188E0,-4.103537649E-2,-2.132067829E-2,3.846454620E-2
6.299775471E0,6.631031632E-3,7.182754576E-3,4.250049591E-2
6.309785237E0,1.836955547E-3,-7.030285895E-3,8.747100830E-3
6.319825520E0,-2.505622804E-3,1.229502261E-2,1.817893982E-2
6.329835285E0,2.678233385E-2,-6.442248821E-3,4.170417786E-3
6.339845051E0,-1.094049960E-2,2.681230009E-2,-3.855419159E-2
6.349885334E0,8.374027908E-3,1.682520658E-2,-1.932144165E-2
6.359895100E0,-3.950431198E-2,-2.439096570E-3,-9.456634521E-3
6.369904865E0,-4.459068924E-2,3.092832118E-2,-1.792907715E-4
6.379945149E0,-4.919400066E-2,3.030189127E-2,-9.713172913E-3
6.389954914E0,4.556162655E-2,-3.307305276E-3,-5.710697174E-2
6.399964680E0,1.063831151E-2,-4.131529480E-2,-4.660606384E-2
6.409974446E0,-4.893496633E-3,-7.870055735E-3,6.282806396E-2
6.420014729E0,-1.989530027E-2,-1.266930997E-2,3.832817078E-2
6.430055012E0,-4.307855666E-2,-2.585232258E-3,1.906013489E-2
6.440064778E0,-3.193613887E-2,-3.507706523E-2,9.233474731E-3
6.450074543E0,1.787275076E-2,8.444085717E-2,-5.170822144E-3
6.460084309E0,1.896530390E-2,4.195488989E-2,4.475593567E-3
6.470124592E0,1.040423661E-2,1.376447827E-2,-3.849601746E-2
6.480134358E0,1.048311591E-2,2.359225601E-2,6.182289124E-2
6.490174641E0,-2.682653815E-2,-1.414448023E-2,-1.027297974E-2
6.500184406E0,-1.249447465E-2,1.462369412E-2,-4.732894897E-2
6.510194172E0,-7.332640141E-2,-2.241994441E-2,8.087825775E-2
6.520234455E0,-1.838783920E-2,4.070267081E-2,-9.183883667E-4
6.530244221E0,7.659323514E-3,3.832727671E-3,-8.306503296E-4
6.540253987E0,9.404577315E-3,-8.910551667E-3,-5.281639099E-2
6.550294270E0,-3.490187228E-3,3.035132587E-2,-1.443290710E-2
6.560304035E0,-3.017131984E-2,3.622151911E-2,4.561424255E-3
6.570313801E0,-2.373101562E-2,1.838052273E-2,-3.819942474E-2
6.580354084E0,-4.158081859E-2,-5.176261067E-2,-3.276538849E-2
6.590363850E0,-4.071706533E-2,-4.987756908E-2,6.742477417E-4
6.600404133E0,1.266378909E-2,2.242174745E-2,-8.874893188E-3
6.610413899E0,-1.076988876E-2,2.256363630E-2,-4.405975342E-3
6.620423664E0,2.336291224E-2,5.146265030E-2,-9.160995483E-3
6.630433430E0,3.802552074E-2,1.831856370E-2,9.827613831E-3
6.640473713E0,4.268436134E-2,-9.635150433E-3,3.341007233E-2
6.650483479E0,1.361267269E-2,-5.137707293E-2,4.409790039E-3
6.660523762E0,-4.754991084E-2,-4.980902374E-2,2.330970764E-2
6.670533528E0,-7.609814405E-3,4.233554006E-3,5.130195618E-2
6.680573811E0,4.169844091E-3,-8.462682366E-3,-2.516651154E-2
6.690583576E0,1.090093702E-2,-6.322667003E-3,3.813743591E-3
6.700593342E0,3.184279054E-2,9.566634893E-3,-9.841918945E-4
6.710633625E0,3.372676671E-2,6.300264597E-2,-2.013206482E-2
6.720673908E0,3.934881091E-2,1.541286707E-3,-8.092212677E-2
6.730683674E0,-2.229722589E-2,6.926119328E-3,-3.754615784E-3
6.740693440E0,-6.463177502E-2,1.143305004E-2,-2.742862701E-2
6.750733723E0,-5.423930287E-2,-3.092645109E-2,4.418087006E-2
6.760743489E0,-8.597303927E-2,-2.483393252E-2,5.287837982E-2
6.770753254E0,-4.010736942E-2,-2.253226936E-2,-3.326797485E-2
6.780793537E0,-8.492343128E-3,-2.036969364E-2,-3.266429901E-2
6.790803303E0,5.501435697E-2,2.017609775E-2,3.421497345E-2
6.800843586E0,3.555729985E-3,3.601372242E-3,2.418804169E-2
6.810853352E0,-2.822679281E-2,-7.645800710E-3,-1.420783997E-2
6.820863117E0,-5.027238280E-2,-1.824435592E-2,2.399539948E-2
6.830903401E0,-3.420488536E-2,-1.840187609E-2,4.740142822E-2
6.840913166E0,2.265241742E-1,-1.013620049E-1,1.509904861E-1
6.850922932E0,-2.597825527E-1,5.034124851E-2,-1.280975342E-2
6.860963215E0,-1.154698431E-3,-2.673894167E-2,1.642322540E-2
6.870972981E0,-2.345668525E-2,4.020045698E-2,6.821918488E-2
6.881013264E0,1.165618598E-1,2.148547769E-2,-3.580093384E-3
6.891023030E0,1.595139503E-3,8.399237692E-2,-1.765155792E-2
6.901032795E0,-5.990134925E-2,5.071994662E-2,-4.029941559E-2
6.911042561E0,-4.351358861E-2,1.887226105E-2,7.877254486E-2
6.921082844E0,1.110646874E-2,1.278886199E-2,4.501628876E-2
6.931092610E0,4.488339275E-2,8.539348841E-3,5.870437622E-2
6.941132893E0,-2.872653306E-3,-2.679806948E-2,2.995681763E-2
6.951142658E0,-3.517382964E-2,-1.784801483E-2,7.295227051E-2
6.961152424E0,-3.883315623E-2,3.509777784E-2,6.742286682E-2
6.971192707E0,-9.141027927E-3,4.085478187E-2,-3.627777100E-3
6.981202473E0,2.964968607E-2,3.325378895E-2,5.377864838E-2
6.991212239E0,2.444479987E-2,1.217696071E-2,2.553749084E-2
7.001252522E0,4.470415413E-3,3.463479877E-2,-1.198577881E-2
7.011262287E0,1.857144386E-2,-2.904132009E-2,-4.388332367E-2
7.021272053E0,-1.823814958E-2,1.631903648E-2,-1.851272583E-2
7.031312336E0,-3.218363971E-2,-9.309351444E-4,1.127910614E-2
7.041322102E0,-2.839287743E-2,-7.423520088E-3,2.628517151E-2
7.051331867E0,-2.451534197E-2,-3.086602688E-2,5.080032349E-2
7.061341633E0,-5.758315697E-2,1.444292068E-2,6.075572968E-2
7.071381916E0,-3.765245155E-2,1.394051313E-2,4.255485535E-2
7.081422199E0,-1.251815259E-2,3.396630287E-2,7.220458984E-2
7.091431965E0,2.689328045E-3,3.926861286E-2,-5.014514923E-2
7.101441731E0,1.813017949E-2,-2.755045891E-3,-4.421234131E-3
7.111482014E0,-1.935409382E-2,2.992153168E-3,-1.652336121E-2
7.121491780E0,5.238667130E-3,4.097241163E-2,-4.715728760E-2
7.131501545E0,5.073763430E-3,1.861631870E-3,-3.022003174E-2
7.141541828E0,1.390272751E-2,9.986341000E-3,-6.558990479E-2
7.151551594E0,-4.826540872E-2,2.934873104E-3,-1.979923248E-2
7.161591877E0,-1.998304576E-2,1.498878002E-2,1.593112946E-2
7.171601643E0,-2.597692981E-2,4.639905691E-2,3.216552734E-2
7.181611408E0,-8.766539395E-3,4.578500986E-2,1.097612381E-1
7.191651692E0,-5.300878733E-2,4.248601198E-2,2.097129822E-2
7.201661457E0,-3.920364007E-2,3.995794058E-2,-1.363754272E-4
7.211701740E0,-2.037665993E-2,8.980691433E-3,-1.561164856E-2
7.221711506E0,-6.846554577E-3,1.545882225E-2,-5.970859528E-2
7.231721272E0,1.837104559E-3,6.317937374E-2,-9.382629395E-2
7.241731037E0,9.150952101E-3,-3.815007210E-2,-4.661560059E-2
7.251771321E0,-2.089473605E-2,1.279413700E-2,4.212760925E-2
7.261811604E0,2.092915773E-2,1.547777653E-2,-4.066753387E-2
7.271821369E0,3.889782727E-2,8.076190948E-3,-3.235912323E-2
7.281861653E0,2.354789525E-2,4.778337479E-2,1.391220093E-2
7.291871418E0,1.305171847E-2,7.182025909E-2,-3.555679321E-2
7.301881184E0,-2.250034362E-2,8.021807671E-2,-4.626464844E-2
7.311890949E0,-2.799338847E-2,-2.727627754E-3,-7.114982605E-2
7.321900715E0,-2.247939259E-2,2.711486816E-2,-4.827022552E-2
7.331940998E0,-7.753312588E-3,6.525468826E-2,-1.166248322E-2
7.341981281E0,-6.034064293E-2,4.143798351E-2,3.368473053E-2
7.351991047E0,4.504483938E-2,4.096508026E-3,5.951881409E-2
7.362000813E0,-3.574367613E-2,2.905225754E-2,1.886749268E-2
7.372041096E0,1.068377718E-1,1.534790993E-1,4.002380371E-2
7.382050862E0,-6.103527546E-2,1.975679398E-2,-7.595539093E-2
7.392060627E0,-5.034992099E-2,-6.473791599E-2,-1.534938812E-2
7.402100910E0,-4.478147626E-2,3.565979004E-2,-2.163124084E-2
7.412110676E0,3.144852072E-2,4.391086102E-2,2.866268158E-2
7.422120442E0,1.590260863E-2,-3.603696823E-4,-1.155185699E-2
7.432130207E0,-2.340409160E-2,-2.475976944E-2,-1.360607147E-2
7.442170490E0,2.831865847E-2,1.262547970E-1,5.110740662E-2
7.452180256E0,-5.846659094E-2,4.837846756E-2,-1.793479919E-2
7.462220539E0,-2.026156336E-2,-1.738011837E-2,2.770519257E-2
7.472230305E0,2.745597810E-2,4.109704494E-2,3.538703918E-2
7.482270588E0,-4.837273061E-2,4.615557194E-2,-1.399230957E-2
7.492280354E0,-1.416164637E-2,-6.087601185E-2,3.959655762E-3
7.502290119E0,-4.309259355E-3,-7.228851318E-4,-6.749153137E-3
7.512330403E0,3.402627259E-2,1.103985310E-2,-3.170967102E-3
7.522340168E0,-1.344078779E-2,1.347851753E-2,5.309104919E-3
7.532349934E0,-2.685456723E-2,4.391121864E-2,8.893966675E-3
7.542390217E0,-7.813861966E-2,5.388283730E-2,-9.648609161E-2
7.552399983E0,-7.721494883E-2,2.980041504E-2,-1.109886169E-2
7.562440266E0,-4.367278516E-2,1.539039612E-2,-4.080009460E-2
7.572450031E0,-4.837460816E-2,2.438151836E-2,7.839202881E-4
7.582459797E0,-3.437747806E-2,6.241309643E-2,-5.712509155E-4
7.592500080E0,2.688154578E-2,1.134777069E-2,2.689075470E-2
7.602509846E0,-8.301332593E-3,4.941105843E-3,2.552795410E-2
7.612550129E0,-9.844191372E-3,3.715610504E-2,2.036476135E-2
7.622559895E0,-2.502015233E-2,3.261315823E-2,4.377079010E-2
7.632569660E0,-1.700428128E-2,-2.282834053E-2,2.855682373E-2
7.642609944E0,-3.699365258E-2,2.413141727E-2,1.044740677E-1
7.652619709E0,-4.199372977E-2,-3.676486015E-2,5.191516876E-2
7.662659992E0,-3.724437207E-2,-3.321695328E-2,-3.864288330E-3
7.672669758E0,-1.313690841E-2,7.918572426E-2,3.108978271E-2
7.682679524E0,1.975995302E-2,3.892183304E-2,4.238128662E-3
7.692719807E0,1.837849617E-2,3.744029999E-2,1.593589783E-3
7.702729572E0,-6.486833096E-3,-2.334356308E-3,-2.463054657E-2
7.712739338E0,2.310834825E-3,-1.350331306E-2,3.028583527E-2
7.722779621E0,-9.022839367E-3,3.838729858E-2,1.808357239E-2
7.732789387E0,-5.769227445E-2,1.505279541E-2,4.448509216E-2
7.742799153E0,-4.452496022E-2,3.643751144E-2,4.878044128E-3
7.752839436E0,-5.923826993E-2,5.374288559E-2,2.301216125E-2
7.762849201E0,-1.656768471E-2,-5.021572113E-3,-5.370426178E-2
7.772889485E0,-5.027289689E-2,7.735013962E-3,-5.329132080E-2
7.782899250E0,-8.395060897E-3,3.348803520E-2,-4.369926453E-2
7.792909016E0,2.417646348E-2,3.020763397E-2,3.182411194E-2
7.802949299E0,5.216694623E-2,3.408432007E-3,2.486228943E-3
7.812959065E0,-6.363838911E-4,9.590053558E-2,3.550529480E-2
7.822999348E0,-7.012553513E-3,8.404779434E-2,-8.894062042E-2
7.833009114E0,-3.306528181E-2,5.329489708E-2,-2.163600922E-2
7.843018879E0,-2.531081438E-2,-1.354217529E-3,2.552032471E-3
7.853028645E0,4.459418356E-2,-2.247977257E-2,-2.566909790E-2
7.863068928E0,8.893661201E-3,-1.955294609E-2,-1.064777374E-2
7.873078694E0,-2.120353281E-2,-3.563117981E-2,4.523277283E-3
7.883118977E0,-5.067812651E-2,-5.640792847E-2,-7.578563690E-2
7.893128742E0,-6.102064997E-2,-6.231784821E-3,-5.566024780E-2
7.903138508E0,-3.784067929E-3,7.161426544E-2,-8.345699310E-2
7.913148274E0,2.520212531E-2,3.281378746E-2,-7.816314697E-2
7.923188557E0,-1.682155579E-2,5.928015709E-2,-7.324123383E-2
7.933198322E0,1.318898797E-2,1.261479855E-1,-9.288120270E-2
7.943238606E0,4.231705517E-2,1.043548584E-1,-1.084041595E-1
7.953248371E0,1.298019290E-2,3.662562370E-2,-9.605789185E-2
7.963288655E0,-2.130113542E-2,-3.747177124E-2,-9.374809265E-2
7.973298420E0,-5.140955001E-2,-4.941201210E-2,-4.844379425E-2
7.983308186E0,-8.630469441E-2,-2.691531181E-2,1.619434357E-2
7.993348469E0,-1.215573326E-1,-7.452678680E-2,6.703376770E-2
8.003358235E0,-1.378625631E-1,-3.939342499E-2,2.257061005E-2
8.013368000E0,-3.847211599E-2,1.997089386E-2,-1.201152802E-2
8.023408283E0,6.131988019E-2,5.049753189E-2,-2.726554871E-2
8.033418049E0,1.733611524E-2,7.963228226E-2,-1.049365997E-1
8.043458332E0,-7.842965424E-3,3.506398201E-2,-1.017866135E-1
8.053468098E0,-2.300154418E-2,7.277011871E-3,-5.162143707E-2
8.063477864E0,-2.762675285E-4,1.710128784E-2,2.210426331E-2
8.073518147E0,4.085987806E-3,-3.922176361E-2,4.251194000E-2
8.083527912E0,3.729604930E-2,-3.262782097E-2,4.401588440E-2
8.093598713E0,-5.304581672E-2,-2.977919579E-2,-5.740165710E-3
8.108521809E0,-6.602716446E-2,3.179049492E-2,-3.682136536E-2
8.118592610E0,-1.084214598E-1,4.318237305E-2,-1.134910583E-1
8.128632893E0,-7.873208076E-2,3.448581696E-2,-9.524345398E-3
8.138673176E0,1.663784683E-2,3.401684761E-2,-2.109909058E-2
8.148682942E0,1.976403594E-2,1.876664162E-2,-3.294277191E-2
8.158723225E0,-4.486441612E-4,-5.398273468E-3,1.204204559E-2
8.168732990E0,4.120875150E-2,-1.032495499E-2,-1.938724518E-2
8.178742756E0,3.955997527E-2,-1.531314850E-2,-2.173519135E-2
8.188752522E0,-4.846334457E-3,-1.465249062E-2,9.447097778E-3
8.198792805E0,-1.022526622E-2,-5.563688278E-2,-4.479694366E-2
8.208833088E0,-5.300728232E-2,-3.816652298E-2,3.951835632E-2
8.218842854E0,-5.270179361E-2,-5.763196945E-2,-2.378845215E-2
8.228852619E0,-9.413920343E-2,1.592636108E-4,-2.927780151E-4
8.238892903E0,-2.114663273E-2,4.820322990E-2,-9.677886963E-3
8.248933186E0,-3.939040750E-2,8.186507225E-2,-1.866722107E-2
8.258942951E0,-4.319392890E-2,1.200404167E-1,-2.700805664E-2
8.268952717E0,-1.900787652E-2,9.644556046E-2,1.157379150E-2
8.278993000E0,-9.547367692E-3,1.242995262E-2,-1.100826263E-2
8.289002766E0,9.536705911E-3,4.833650589E-2,2.828121185E-2
8.299012531E0,4.694499075E-3,2.703475952E-2,-2.268505096E-2
8.309022297E0,-2.863835543E-2,-2.643585205E-2,-1.648902893E-3
8.319062580E0,-3.327944875E-2,-2.652192116E-2,1.974010468E-2
8.329072346E0,-5.417205393E-3,-1.353502274E-3,2.694225311E-2
8.339112629E0,-7.289892435E-2,-6.126904488E-2,-8.102416992E-3
8.349122395E0,-4.902238399E-2,7.068395615E-3,-2.814292908E-2
8.359162678E0,3.259702772E-2,7.409262657E-2,-4.826831818E-2
8.369172444E0,5.164152384E-2,1.115248203E-1,-4.449939728E-2
8.379182209E0,3.226934373E-2,8.631014824E-2,-2.145004272E-2
8.389222492E0,-5.119293928E-4,1.036260128E-1,8.573532104E-4
8.399232258E0,6.051031500E-2,2.005491257E-1,2.739334106E-2
8.409242024E0,-1.477789879E-2,9.547090530E-2,-7.471370697E-2
8.419282307E0,-3.073647618E-2,-5.951452255E-2,-6.154632568E-2
8.429292072E0,-8.854731172E-2,4.855632782E-3,-2.023983002E-2
8.439332356E0,-6.595364213E-2,7.385253906E-3,-3.154754639E-3
8.449342121E0,-5.241005123E-2,-6.958150864E-2,-1.443386078E-2
8.459351887E0,-1.506953686E-2,-1.622819901E-2,7.938289642E-2
8.469361653E0,-4.041416198E-2,-2.894783020E-2,2.164936066E-2
8.479401936E0,-5.552914739E-2,-3.050947189E-2,1.762866974E-2
8.489411701E0,-3.629816324E-2,-1.653003693E-2,-4.791259766E-2
8.499421467E0,4.088396579E-2,-1.173353195E-2,-6.989192963E-2
8.509461750E0,1.250495762E-2,7.357740402E-2,-1.301670074E-1
8.519471516E0,-2.033938468E-2,5.191564560E-2,-8.595561981E-2
8.529511799E0,-2.884905040E-2,7.123279572E-2,-1.286697388E-1
8.539521565E0,-2.794639021E-2,1.226563454E-1,-7.622337341E-2
8.549561848E0,-2.745612711E-2,9.151124954E-2,-4.351329803E-2
8.564545979E0,7.284776866E-2,1.293559074E-1,1.895332336E-2
8.574677815E0,-1.876190305E-2,-1.794290543E-2,-1.354522705E-1
8.584687580E0,-5.124618113E-2,-6.979608536E-2,-1.224555969E-1
8.599580158E0,-1.484438777E-2,-2.017688751E-2,-1.180181503E-1
8.609650959E0,-3.634411842E-2,-4.997873306E-2,-1.296730042E-1
8.619660725E0,-2.889134735E-2,2.029085159E-2,-1.711940765E-2
8.629701008E0,-5.114626884E-2,7.541894913E-2,-8.683013916E-2
8.639741291E0,-5.960495770E-2,1.479148865E-2,-1.184539795E-1
8.649751057E0,-4.423660785E-2,1.151561737E-3,-1.026506424E-1
8.659760822E0,-5.809902400E-2,4.347848892E-2,-6.372451782E-2
8.669770588E0,-9.633663297E-2,3.673171997E-2,-1.115446091E-1
8.679780354E0,-8.134468645E-2,5.727624893E-2,-7.318687439E-2
8.689820637E0,-1.390592754E-2,1.095023155E-1,-5.898761749E-2
8.699830403E0,-1.424280554E-2,3.810262680E-2,-5.890369415E-2
8.709870686E0,3.370289505E-2,9.026527405E-4,-4.908561707E-2
8.719880451E0,4.755333066E-4,7.255125046E-2,-1.013307571E-1
8.729920735E0,-1.818899065E-2,8.932399750E-2,-1.731958389E-1
8.739930500E0,-4.246291518E-2,7.948780060E-2,-1.500883102E-1
8.749970783E0,-2.887103707E-2,1.500034332E-2,-1.666698456E-1
8.759980549E0,3.433361650E-3,-7.893466949E-2,-8.029460907E-2
8.769990315E0,1.646573842E-2,-2.083015442E-2,4.165649414E-3
8.780000080E0,-9.460904449E-2,-4.162406921E-2,-1.699247360E-1
8.790040364E0,-9.185396135E-2,-1.004238129E-1,-1.752176285E-1
8.800050129E0,-5.112223327E-2,3.198242188E-2,-1.922264099E-1
8.810059895E0,-1.637634635E-2,1.299147606E-1,-2.580785751E-1
8.820100178E0,3.257202357E-2,4.226827621E-2,-2.168874741E-1
8.830109944E0,-2.314894646E-2,5.952262878E-2,-1.838598251E-1
8.840119709E0,-4.480978101E-2,1.533365250E-2,-1.725606918E-1
8.850159992E0,-3.725973517E-2,2.482509613E-2,-9.760570526E-2
8.860200276E0,-6.289166212E-2,-1.169395447E-2,-1.626062393E-1
8.870210041E0,-5.969680846E-2,-7.896852493E-2,-1.526470184E-1
8.880219807E0,-2.848176658E-2,3.059864044E-3,-1.350927353E-1
8.890229572E0,-7.153943181E-3,7.109975815E-2,-1.142349243E-1
8.900239338E0,-5.351573229E-3,-2.455949783E-2,-5.739116669E-2
8.910279621E0,5.785323679E-3,-3.513574600E-2,-6.078720093E-3
8.920319905E0,-2.529226989E-2,-1.307344437E-2,-8.030891418E-3
8.930329670E0,-5.224403739E-2,-1.934814453E-2,1.926040649E-2
8.940339436E0,-1.207015663E-2,-2.034902573E-2,8.858776093E-2
8.950349201E0,-4.359186441E-2,7.984161377E-3,8.667755127E-2
8.960389485E0,-6.521201879E-2,5.532217026E-2,3.345108032E-2
8.970399250E0,-6.447295099E-2,1.169843674E-1,2.727508545E-4
8.980409016E0,-4.104867578E-2,1.020498276E-1,-2.331352234E-2
8.990449299E0,-1.778721064E-2,9.600734711E-2,4.861450195E-2
9.000459065E0,-4.117451608E-3,4.721546173E-2,4.425811768E-2
9.010499348E0,5.851027369E-2,1.791715622E-2,7.844829559E-2
9.020509114E0,1.615768671E-2,2.303695679E-2,8.926963806E-2
9.030549397E0,5.153374374E-2,-1.396226883E-2,8.634281158E-2
9.040559162E0,-2.809782326E-2,-1.681756973E-2,7.418632507E-3
9.050568928E0,-6.486170739E-2,6.165790558E-2,-4.246711731E-3
9.060578694E0,-4.988931119E-2,-2.284145355E-2,-1.095771790E-2
9.070618977E0,-3.599019349E-2,-4.509949684E-2,-3.208160400E-3
9.080628742E0,-2.213094383E-2,-1.466178894E-2,4.679679871E-3
9.090669026E0,1.858904958E-3,-2.789735794E-3,7.992839813E-2
9.100678791E0,6.389789283E-3,1.947689056E-2,5.998420715E-2
9.110688557E0,1.617161185E-2,3.259134293E-2,5.000495911E-2
9.120728840E0,-2.697879821E-2,-1.609611511E-2,6.902027130E-2
9.130738606E0,-1.287773997E-2,7.846713066E-2,-1.235198975E-2
9.140778889E0,-3.198386729E-2,3.365421295E-2,-1.231384277E-2
9.150788655E0,-3.727859259E-2,1.296257973E-2,1.177310944E-2
9.160828938E0,-2.305874974E-2,6.870985031E-3,4.086494446E-2
9.170838703E0,-4.198826849E-3,2.052092552E-2,8.939266205E-2
9.180848469E0,1.016483456E-2,-7.894515991E-3,6.187725067E-2
9.190888752E0,-8.713081479E-3,-2.153825760E-2,8.248329163E-2
9.200898518E0,-7.676824927E-3,-2.923727036E-2,1.227064133E-1
9.210908283E0,7.909066975E-3,-3.641271591E-2,4.367351532E-2
9.220918049E0,-3.372307867E-2,-1.922798157E-2,6.551074982E-2
9.230958332E0,-2.780029178E-2,2.584218979E-3,2.523899078E-2
9.240968098E0,1.922950149E-3,-1.323986053E-2,6.184291840E-2
9.251008381E0,-2.636857331E-2,2.414369583E-2,4.614257812E-2
9.261018147E0,-3.588242829E-2,1.968193054E-2,8.359527588E-2
9.271058430E0,-7.224004716E-3,3.030371666E-2,1.070346832E-1
9.281068196E0,-4.169907421E-2,-2.010631561E-2,5.441093445E-2
9.291077961E0,-2.307495475E-2,-7.339000702E-3,9.788227081E-2
9.301118244E0,-4.302041233E-2,-5.593776703E-2,5.080890656E-2
9.311128010E0,-4.393921047E-2,-7.139205933E-3,1.096735001E-1
9.321168293E0,8.062414825E-3,-1.909613609E-2,1.259765625E-1
9.331178059E0,3.108458221E-2,8.617401123E-3,6.620883942E-2
9.341187824E0,-2.206905931E-2,-1.113057137E-2,-1.711463928E-2
9.351197590E0,-2.731040120E-2,4.442548752E-2,-5.215930939E-2
9.361237873E0,5.733378232E-3,-1.265287399E-3,1.260280609E-2
9.371247639E0,-1.357821375E-2,4.240131378E-2,-6.604385376E-2
9.381257405E0,-9.042344987E-3,-9.812831879E-3,5.027103424E-2
9.391297688E0,-1.415038109E-2,-1.367974281E-2,7.030487061E-2
9.401307453E0,-3.193894774E-2,1.123142242E-2,4.759693146E-2
9.411347737E0,2.170839161E-2,1.707267761E-2,3.990840912E-2
9.421357502E0,6.961216778E-2,1.776862144E-2,3.712654114E-3
9.431367268E0,4.544520378E-2,-5.326747894E-3,1.994514465E-2
9.441407551E0,6.993278861E-3,1.900148392E-2,2.202033997E-2
9.451417317E0,-1.725740731E-3,2.891826630E-2,5.700397491E-2
9.461427082E0,-3.902299702E-2,-1.296067238E-2,6.335353851E-2
9.471467365E0,-3.810928762E-2,-1.617264748E-2,2.272891998E-2
9.481477131E0,-6.564559042E-2,1.376438141E-2,5.357933044E-2
9.491517414E0,-2.634948492E-2,2.864861488E-2,4.125881195E-2
9.501527180E0,-5.439634249E-2,2.961850166E-2,4.831123352E-2
9.511567463E0,-4.379302263E-2,-2.254724503E-3,5.029678345E-2
9.521577229E0,-3.834532946E-2,-1.058006287E-2,-4.695129395E-2
9.531586994E0,-9.256538004E-3,-3.240108490E-4,5.588817596E-2
9.541596760E0,-2.321089432E-2,-4.185390472E-2,5.345439911E-2
9.551637043E0,2.425641939E-2,-3.399634361E-2,9.409427643E-2
9.561646809E0,9.143866599E-3,-8.183121681E-2,5.868721008E-2
9.571687092E0,-1.811236143E-4,-2.347779274E-2,9.457015991E-2
9.581696858E0,-1.319671050E-2,-2.655959129E-2,3.153038025E-2
9.591737141E0,-3.562704101E-2,8.566379547E-3,2.712249756E-3
9.601746906E0,-6.204333529E-2,2.855753899E-2,2.643489838E-2
9.611756672E0,-3.614407405E-2,5.734896660E-2,1.963615417E-3
9.621796955E0,3.418188542E-3,9.952378273E-2,2.087497711E-2
9.631806721E0,-3.873286024E-2,5.457735062E-2,1.597404480E-3
9.641847004E0,-2.890341729E-2,4.289460182E-2,-2.710723877E-2
9.651856770E0,-2.352558449E-2,7.144689560E-3,1.493740082E-2
9.661866535E0,-9.188245982E-3,-1.451182365E-2,5.171298981E-2
9.671906819E0,4.568178207E-3,2.199792862E-2,7.883548737E-2
9.681916584E0,2.810022980E-2,-1.226210594E-2,5.827426910E-2
9.691926350E0,3.759770840E-2,-3.087520599E-2,6.663513184E-2
9.701966633E0,2.291636169E-2,-2.227306366E-3,-5.049705505E-3
9.711976399E0,2.754009143E-2,1.590466499E-2,-3.805923462E-2
9.722016682E0,-2.459916845E-2,4.572844505E-2,-1.443290710E-2
9.732026447E0,-1.052452251E-2,3.235340118E-3,1.345634460E-2
9.742036213E0,-3.882376105E-2,5.026888847E-2,-1.134586334E-2
9.752045979E0,-9.577088058E-4,1.115274429E-2,3.985691071E-2
9.762086262E0,8.392628282E-3,1.058506966E-2,5.731678009E-2
9.772096028E0,3.154903650E-3,-2.750539780E-2,4.152774811E-2
9.782105793E0,-2.022955939E-2,3.478670120E-2,5.878829956E-2
9.792146076E0,-2.879909799E-2,2.547049522E-2,3.885555267E-2
9.802155842E0,-1.849383116E-2,5.366992950E-2,-2.843666077E-2
9.812165608E0,-2.722077444E-2,5.623340607E-3,4.542350769E-3
9.822205891E0,-3.617143631E-2,2.868556976E-2,2.295589447E-2
9.832215656E0,-5.976622552E-2,4.214239120E-2,3.635120392E-2
9.842255940E0,-2.198632807E-3,2.714920044E-2,3.544998169E-2
9.852265705E0,1.725241542E-2,4.613518715E-2,6.786918640E-2
9.862275471E0,2.134712040E-2,-1.019525528E-2,1.938819885E-2
9.872315754E0,3.055103868E-2,-1.787960529E-2,4.276657104E-2
9.882325520E0,-2.687977999E-2,-4.802620411E-2,9.493064880E-2
9.892365803E0,-1.723834127E-2,-1.916861534E-2,1.508979797E-1
9.902375569E0,-2.532400191E-3,-7.096409798E-3,1.356744766E-1
9.912385334E0,-6.577953696E-3,-7.264852524E-3,8.815670013E-2
9.922425617E0,-8.531026542E-4,-5.914568901E-3,8.542060852E-3
9.932435383E0,3.074668348E-4,1.010525227E-2,2.978229523E-2
9.942475666E0,-2.674543485E-2,5.426752567E-2,-4.390716553E-2
9.952485432E0,-2.542471513E-2,7.832336426E-2,-2.197360992E-2
9.962495197E0,-3.809184581E-2,6.392645836E-2,6.553077698E-2
9.972535481E0,1.221075654E-3,4.482972622E-2,-8.706092834E-3
9.982545246E0,-2.225752920E-2,7.381558418E-3,3.028869629E-3
9.992585530E0,-1.723077148E-2,-1.109123230E-3,1.971149445E-2
1.000259530E1,-1.807968318E-2,6.245052814E-2,3.594112396E-2
1.001260506E1,1.413526386E-2,-4.510033131E-2,3.343391418E-2
1.002264534E1,1.355584338E-2,-4.572236538E-2,2.146530151E-2
1.003265511E1,3.179230914E-2,-8.274316788E-3,4.267024994E-2
1.004266488E1,1.640034467E-2,-2.332985401E-2,2.145290375E-2
1.005270516E1,1.706287265E-3,-3.804278374E-2,-1.397418976E-2
1.006271492E1,-2.639492974E-2,-6.296908855E-2,-1.615524292E-3
1.007275521E1,2.696181461E-2,-4.030942917E-3,6.023406982E-3
1.008276497E1,-5.697838962E-3,2.967870235E-2,-1.020526886E-2
1.009280526E1,3.315337747E-2,9.764552116E-3,-6.442546844E-2
1.010281502E1,5.329855159E-2,3.677439690E-2,3.801918030E-2
1.011282479E1,-7.668264210E-3,6.288385391E-2,1.745223999E-3
1.012286507E1,-1.169898361E-2,6.026077271E-2,4.166412354E-2
1.013287484E1,-1.575470716E-2,6.298768520E-2,7.429122925E-4
1.014291512E1,-1.061780378E-2,3.692591190E-2,-1.651191711E-2
1.015292489E1,-3.864733502E-2,4.873728752E-2,-2.349185944E-2
1.016293465E1,-5.266195908E-2,-4.064130783E-2,-6.383800507E-2
1.017294442E1,-4.194271192E-2,-4.014623165E-2,5.163192749E-3
1.018298470E1,-2.173916250E-2,-1.258659363E-2,2.594566345E-2
1.019299446E1,2.214996144E-2,-1.787436008E-2,6.504917145E-2
1.020303475E1,3.843002021E-3,2.037692070E-2,7.028865814E-2
1.021304451E1,1.912935451E-2,1.231384277E-2,8.551788330E-2
1.022305428E1,-8.140165359E-3,9.038090706E-3,-2.730083466E-2
1.023309456E1,-1.671372168E-2,1.953053474E-2,-3.441047668E-2
1.024310433E1,2.997411415E-3,-3.099441528E-6,-4.110240936E-2
1.025311409E1,-3.930951655E-2,-5.852198601E-2,-1.495170593E-2
1.026315438E1,-1.446213759E-2,-2.685272694E-2,1.313209534E-3
1.027316414E1,8.900277317E-4,-8.847236633E-3,1.068954468E-1
1.028317391E1,1.129662804E-2,-2.798187733E-2,8.363437653E-2
1.029321419E1,4.579827562E-2,-1.230418682E-2,2.768421173E-2
1.030322396E1,3.680709749E-3,-1.004028320E-2,9.624576569E-2
1.031326424E1,2.331368625E-2,3.607404232E-2,3.589820862E-2
1.032327401E1,-5.253535882E-2,7.103443146E-3,4.300689697E-2
1.033328377E1,-9.690199047E-3,-2.927219868E-2,-2.351760864E-3
1.034329354E1,-7.589974999E-2,-3.098034859E-2,-4.159927368E-3
1.035333382E1,-5.053012073E-2,3.952157497E-2,6.107044220E-2
1.036334359E1,-2.164249867E-2,7.247769833E-2,1.624011993E-2
1.037335335E1,-2.158150822E-2,-3.104233742E-2,8.616352081E-2
1.038339364E1,2.738252282E-3,1.867699623E-2,1.305198669E-2
1.039340340E1,-1.576159336E-2,4.405045509E-2,-1.167964935E-2
1.040341317E1,-2.535558492E-2,-1.192712784E-2,-5.043506622E-2
1.041345345E1,-6.325351074E-3,-1.368045807E-3,2.493286133E-2
1.042349373E1,8.114624768E-3,1.785647869E-2,3.809642792E-2
1.043350350E1,8.000338450E-3,-1.071321964E-2,1.299381256E-2
1.044354378E1,2.752813511E-2,-1.081538200E-2,4.499244690E-2
1.045358407E1,1.361951977E-2,3.400802612E-3,2.894401550E-2
1.046365486E1,-5.157589912E-3,2.647614479E-2,-3.382301331E-2
1.047851693E1,-4.342831299E-2,3.201758862E-2,8.290004730E-2
1.049356209E1,1.048840582E-3,-7.067680359E-3,-4.267311096E-2
1.050363289E1,-3.648974746E-2,-9.365785122E-2,-3.381443024E-2
1.051370369E1,-6.417530589E-3,-1.906824112E-2,2.235126495E-2
1.052871834E1,1.926114783E-2,3.410601616E-2,-8.827209473E-3
1.053872811E1,4.338936508E-2,-1.324415207E-3,3.756237030E-2
1.054873787E1,2.879502624E-2,-2.243995667E-3,5.448818207E-2
1.055877816E1,1.995684579E-4,3.607708216E-2,4.311847687E-2
1.056878792E1,-1.014973968E-4,1.373893023E-2,4.657554626E-2
1.057879769E1,-1.515218709E-2,-6.786167622E-3,-1.657009125E-2
1.058883797E1,-4.415575787E-2,-4.083162546E-2,3.499221802E-2
1.059887825E1,-1.007855218E-2,-8.457422256E-3,2.452182770E-2
1.060888802E1,-9.605138563E-3,-6.037652493E-3,-4.707813263E-2
1.061889779E1,1.425759215E-2,-8.698046207E-3,-9.332656860E-3
1.062893807E1,9.649202228E-3,1.142108440E-2,-2.409076691E-2
1.063894783E1,2.441881783E-2,1.468777657E-3,-5.326461792E-2
1.064895760E1,2.473983541E-2,1.935034990E-2,2.703380585E-2
1.065899788E1,-2.284677699E-2,-3.005957603E-2,-6.412220001E-2
1.066900765E1,-3.189779073E-2,-8.019208908E-2,-4.548358917E-2
1.067901741E1,-3.552022204E-2,-7.246255875E-3,2.488708496E-2
1.068902718E1,-1.630415954E-2,1.790338755E-2,4.250335693E-2
1.069906746E1,1.128665451E-2,3.473812342E-2,7.854080200E-2
1.070910775E1,5.188924260E-3,1.540035009E-2,6.240177155E-2
1.071911751E1,-2.417065389E-2,1.683092117E-2,7.030200958E-2
1.072912728E1,-2.391354367E-2,1.396137476E-2,-2.306938171E-3
1.073916756E1,2.377670631E-2,2.034854889E-2,-2.808570862E-3
1.074917733E1,4.352212884E-3,6.316065788E-3,-4.578495026E-2
1.075918709E1,3.711105324E-3,-1.780766249E-2,-4.594039917E-2
1.076922738E1,3.646652400E-2,-9.501993656E-3,-8.163452148E-3
1.077923714E1,2.593885362E-2,7.602035999E-3,-2.787017822E-2
1.078924691E1,3.428409249E-2,-1.798164845E-2,1.432037354E-2
1.079928719E1,-2.834997326E-2,3.317415714E-2,1.780796051E-2
1.080929696E1,2.245731652E-2,2.283853292E-2,5.010795593E-2
1.081930672E1,3.057759628E-2,-1.980561018E-2,2.989673615E-2
1.082931649E1,-1.806351542E-2,-4.777795076E-2,9.864807129E-3
1.083935677E1,-1.338630915E-2,-4.260116816E-2,-6.208419800E-2
1.084936654E1,4.378571361E-2,-1.946359873E-2,-1.481056213E-2
1.085940682E1,-4.120016471E-3,-6.654977798E-3,-3.423309326E-2
1.086941658E1,-4.220023751E-3,-4.293620586E-3,1.249122620E-2
1.087945687E1,2.364493906E-2,1.720356941E-2,5.396842957E-2
1.088946663E1,-1.061025262E-2,-4.631811380E-2,-4.706287384E-2
1.089947640E1,-3.959462792E-2,-1.883918047E-2,1.904869080E-2
1.090951668E1,-4.431144893E-2,8.607029915E-3,-1.025104523E-2
1.091952645E1,-5.311824754E-2,-2.097195387E-2,-6.203651428E-3
1.092953621E1,-5.671900511E-2,-3.165006638E-2,1.673030853E-2
1.093960701E1,-3.649174422E-2,-4.226726294E-2,1.097869873E-2
1.094967782E1,-1.666963100E-2,-1.974356174E-2,-1.801109314E-2
1.096453988E1,-2.110498399E-2,-3.633135557E-2,-1.845169067E-2
1.097461068E1,3.142304346E-2,-5.216151476E-2,1.407909393E-2
1.098465096E1,1.657782122E-2,-1.122945547E-2,3.668785095E-3
1.099466073E1,2.373762429E-3,-2.375614643E-2,-2.548408508E-2
1.100470101E1,5.064105988E-2,-4.104304314E-2,1.182270050E-2
1.101471077E1,-2.036959305E-2,-4.396158457E-2,2.526855469E-2
1.102475106E1,-3.313990682E-2,2.524548769E-2,2.871036530E-2
1.103476082E1,-3.283643164E-3,3.288990259E-2,4.167366028E-2
1.104477059E1,2.377622761E-3,1.790398359E-2,8.792495728E-2
1.105484139E1,-5.391013622E-2,2.836066484E-2,1.534080505E-2
1.106485116E1,-3.347738832E-2,-1.262155175E-2,3.834342957E-2
1.107486092E1,4.772735760E-3,5.709576607E-2,9.178161621E-3
1.108490120E1,9.021661244E-3,-1.585936546E-2,-5.665779114E-3
1.109491097E1,-5.699092895E-2,-2.560758591E-2,3.192615509E-2
1.110492074E1,-4.193921760E-2,1.705142856E-2,-2.568340302E-2
1.111493050E1,1.518682297E-2,1.633548737E-2,-1.957893372E-3
1.112497078E1,1.480661798E-2,-1.246938109E-2,2.627372742E-3
1.113498055E1,5.385474302E-3,-2.683204412E-2,-7.078170776E-3
1.114502083E1,5.562607199E-3,-4.160696268E-2,-2.616977692E-2
1.115503060E1,8.436804637E-4,-1.834985614E-2,6.855964661E-3
1.116504036E1,-1.781805605E-2,-4.762974381E-2,6.334495544E-2
1.117508065E1,-4.137202725E-2,-1.449173689E-2,-8.867263794E-3
1.118509041E1,-3.586588055E-2,-9.958088398E-3,9.777069092E-3
1.119510018E1,-2.624961734E-2,-2.509257197E-2,-2.850532532E-2
1.120514046E1,-2.160822228E-2,2.162641287E-2,1.441287994E-2
1.121515023E1,1.357070170E-3,-8.631974459E-3,-1.931190491E-2
1.122519051E1,-4.379577935E-3,3.877311945E-3,-1.473522186E-2
1.123520028E1,-4.329599440E-2,-1.669824123E-2,1.372718811E-2
1.124521004E1,-1.070514042E-2,-3.195482492E-2,6.052875519E-2
1.125525032E1,-6.430024281E-3,-5.076479912E-2,8.299446106E-2
1.126526009E1,-1.583304442E-2,-4.461020231E-2,5.749702454E-3
1.127526986E1,2.789309621E-2,-2.817100286E-2,4.334354401E-2
1.128531014E1,3.321589902E-2,-1.135638356E-2,4.503250122E-3
1.129531991E1,-2.847165056E-2,-2.707770467E-2,1.820087433E-2
1.130532967E1,-2.229658887E-2,-1.392138004E-2,3.481864929E-3
1.131536995E1,-2.324570902E-3,2.286520600E-2,2.221488953E-2
1.132537972E1,7.473411970E-3,-1.622128487E-2,-1.648902893E-3
1.133538948E1,-2.098714560E-2,1.157858968E-2,3.632640839E-2
1.134542977E1,5.965831503E-2,3.926217556E-2,1.185417175E-2
1.135543953E1,-4.064368084E-2,-2.757745981E-2,-1.200103760E-2
1.136547982E1,-2.534587868E-2,-8.309006691E-3,-2.390861511E-3
1.137548958E1,-1.953191683E-2,4.779675603E-2,7.144927979E-3
1.138549935E1,-4.205062054E-3,-1.079583168E-2,1.158142090E-2
1.139553963E1,-2.200004831E-2,4.485118389E-2,-5.940437317E-2
1.140554940E1,-1.685070060E-2,2.379417419E-2,-3.045463562E-2
1.141558968E1,-2.365693916E-3,6.696730852E-3,-6.779575348E-2
1.142559945E1,1.643907093E-2,2.940654755E-3,3.920555115E-3
1.143563973E1,-2.199347317E-2,1.232689619E-2,-3.870582581E-2
1.144564949E1,-8.847850561E-2,-5.032944679E-2,-4.281139374E-2
1.145565926E1,-4.892496765E-2,5.196261406E-2,-3.758049011E-2
1.146569954E1,1.729456522E-2,-1.828360558E-2,-1.359748840E-2
1.147570931E1,1.199116372E-2,-5.002376437E-2,9.860038757E-3
1.148571907E1,3.046301380E-2,4.257053137E-3,-1.423549652E-2
1.149575936E1,3.497730568E-2,-1.335552335E-2,4.736614227E-2
1.150576912E1,-1.751578413E-2,-6.610691547E-3,-1.969528198E-2
1.151580941E1,-2.260915376E-2,1.428973675E-2,2.301502228E-2
1.152581917E1,3.484653309E-2,-1.305994391E-2,3.329277039E-3
1.153582894E1,1.101673581E-2,-3.526958823E-2,1.277256012E-2
1.154586922E1,1.035742462E-2,4.795768857E-2,5.506420135E-2
1.155587899E1,-6.409816444E-3,2.292022109E-2,8.704090118E-2
1.156591927E1,-4.551292956E-2,-4.053175449E-3,1.139373779E-1
1.157592904E1,-2.147655562E-2,4.997402430E-3,8.845043182E-2
1.158593880E1,-6.466734223E-3,-1.777574420E-2,2.069091797E-2
1.159597908E1,-3.409921750E-2,-3.041997552E-2,-4.120254517E-2
1.160598885E1,2.888534218E-4,1.310828328E-2,-3.563213348E-2
1.161602913E1,-2.310686931E-2,3.183877468E-2,-1.133918762E-2
1.162603890E1,1.012216322E-2,4.457181692E-2,-3.930950165E-2
1.163604866E1,2.345417067E-2,5.151426792E-2,-1.500034332E-2
1.164605843E1,-6.175305694E-3,-3.440082073E-3,2.750587463E-2
1.165609871E1,-2.148409560E-2,-4.844234884E-2,-3.435707092E-2
1.166610848E1,-2.243380249E-2,-3.427922726E-3,-1.475811005E-2
1.167611824E1,2.369089052E-4,-5.381402373E-2,4.212474823E-2
1.168615853E1,-1.009436790E-2,-3.195494413E-2,5.548572540E-2
1.169616829E1,-1.531015523E-2,-6.171800196E-2,2.519607544E-3
1.170620858E1,-3.428047895E-2,2.732628584E-2,3.544521332E-2
1.171621834E1,-1.068840548E-2,2.107092738E-2,-3.615856171E-2
1.172622811E1,-1.287315972E-3,1.050640643E-2,-5.919933319E-2
1.173623787E1,-6.963403895E-3,1.832316816E-2,-3.462505341E-2
1.174627816E1,-4.162900522E-2,1.798793674E-3,-9.660720825E-4
1.175628792E1,-1.879442111E-2,-3.339172900E-2,-1.118659973E-3
1.176629769E1,-4.340539128E-2,-6.838746369E-2,8.449554443E-3
1.177633797E1,-2.993557230E-2,-2.718135715E-2,4.126358032E-2
1.178634774E1,7.201155648E-3,-1.004077494E-2,2.695083618E-3
1.179638802E1,-3.184418008E-2,-3.069749475E-2,-3.050422668E-2
1.180639779E1,1.055938937E-2,1.519916952E-2,4.087257385E-2
1.181640755E1,-1.423765160E-2,1.751485467E-2,-7.212638855E-3
1.182644783E1,1.340742223E-2,9.773820639E-4,-1.164722443E-2
1.183648812E1,-1.178402454E-2,3.166112304E-2,-1.613426208E-2
1.184649788E1,-3.823377192E-3,2.902257442E-2,-3.498268127E-2
1.185650765E1,8.512038738E-3,-1.681685448E-2,-5.356025696E-2
1.186654793E1,2.456769720E-2,-1.499165595E-2,-1.506519318E-2
1.187655770E1,-1.143926010E-2,-8.843019605E-3,3.716182709E-2
1.188656746E1,8.219629526E-4,-1.177270710E-2,3.672599792E-2
1.189660775E1,-2.959638089E-2,4.943132401E-3,3.099441528E-3
1.190664803E1,-2.305652946E-3,1.739859581E-2,7.881069183E-2
1.191665780E1,2.527721226E-2,9.869724512E-3,-8.842563629E-2
1.192666756E1,-2.523741126E-2,2.190433443E-2,6.512641907E-2
1.193667733E1,-8.357529342E-2,2.092313766E-2,7.746601105E-2
1.194671761E1,-2.292589098E-2,5.698516965E-3,-6.035041809E-2
1.195672738E1,7.205512375E-3,9.061783552E-3,-7.039070129E-3
1.196676766E1,3.164778650E-2,7.412657142E-3,3.084945679E-2
1.197677742E1,2.268317342E-2,-3.671069443E-2,2.088069916E-2
1.198678719E1,4.226275906E-2,-2.928823233E-4,-7.933616638E-3
1.199682747E1,2.394021302E-2,-1.182813942E-2,1.128768921E-2
1.200683724E1,-5.960538238E-2,-2.783772349E-2,-7.905960083E-3
1.201687752E1,-2.710043639E-2,-2.414010465E-2,2.525520325E-2
1.202688729E1,-2.214311063E-2,1.791858673E-2,2.034854889E-2
1.203689705E1,-2.694457769E-3,2.162492275E-2,-3.623962402E-3
1.204690682E1,2.134589851E-2,1.600772142E-2,-2.238559723E-2
1.205694710E1,-2.095512301E-2,1.502604783E-2,-7.857322693E-3
1.206698739E1,3.663747013E-2,-4.705786705E-5,6.299018860E-3
1.207699715E1,2.663786709E-2,1.836887002E-2,2.988529205E-2
1.208700692E1,-6.469704211E-3,8.626833558E-3,2.449226379E-2
1.209704720E1,3.205199540E-2,3.565952182E-3,1.441669464E-2
1.210705696E1,3.715756536E-2,1.288075745E-2,-9.292602539E-3
1.211706673E1,1.839281619E-2,-1.592069864E-3,-3.787231445E-2
1.212710701E1,2.345446497E-2,-2.056163549E-2,8.907318115E-4
1.213711678E1,-4.619359970E-3,8.190363646E-3,1.025485992E-2
1.214712654E1,-1.310819387E-2,1.287566125E-2,2.453517914E-2
1.215716683E1,-1.652393118E-2,3.178861737E-2,-1.347446442E-2
1.216717659E1,-4.862046614E-2,1.257613301E-2,-1.317501068E-2
1.217718636E1,-1.890878007E-2,1.195132732E-2,-2.226924896E-2
1.218722664E1,-2.349882573E-2,-2.196897566E-2,-2.668762207E-2
1.219723641E1,9.615700692E-3,-2.738165855E-2,3.027534485E-2
1.220724617E1,-1.447014511E-2,-1.831123233E-2,6.055831909E-3
1.221728646E1,-2.817424014E-2,-1.849119365E-2,-1.292705536E-2
1.222729622E1,1.080454141E-2,-5.626927316E-2,2.000999451E-2
1.223730599E1,1.620689780E-2,1.096230745E-2,-2.283477783E-2
1.224734627E1,2.165296301E-2,6.630018353E-3,-8.439064026E-3
1.225735604E1,-1.599505544E-2,2.071864903E-2,-3.635978699E-2
1.226736580E1,-3.441848606E-2,1.579579711E-2,-4.051017761E-2
1.227740609E1,1.311026886E-2,5.778014660E-2,-2.566909790E-2
1.228741585E1,-3.100720048E-2,9.210169315E-3,-6.292343140E-3
1.229745614E1,-1.274030656E-2,-1.507526636E-2,-1.121807098E-2
1.230746590E1,-1.789393276E-2,-2.501839399E-2,2.228355408E-2
1.231750618E1,-1.363448799E-2,-2.055861056E-2,-3.016853333E-2
1.232751595E1,5.396753550E-3,1.233288646E-2,3.168964386E-2
1.233755623E1,-8.381221443E-3,-3.536763787E-2,2.175045013E-2
1.234756600E1,-1.220188662E-2,3.668747842E-2,2.143001556E-2
1.235757576E1,7.642496377E-3,8.094102144E-3,-7.179260254E-3
1.236758553E1,3.563757986E-3,2.210481465E-2,1.165199280E-2
1.237762581E1,-2.469862625E-2,2.155560255E-2,-1.212978363E-2
1.238763558E1,2.254335582E-2,-2.673938870E-3,-6.396484375E-2
1.239764534E1,-2.644280717E-2,4.867523909E-2,1.263427734E-2
1.240768563E1,-1.837780699E-2,4.643067718E-3,-1.501083374E-3
1.241772591E1,-4.370188341E-2,-2.435386181E-2,7.971763611E-3
1.242773568E1,-8.720497787E-2,-7.690130174E-2,8.074760437E-3
1.243777596E1,-6.316992640E-2,-1.950864494E-2,1.228904724E-2
1.244778573E1,2.304034308E-2,3.746631742E-2,-1.162242889E-2
1.245779549E1,2.829523012E-2,-2.444179356E-2,4.080581665E-2
1.246780526E1,-3.685899079E-3,-4.788503051E-3,-2.326965332E-3
1.247784554E1,-4.940349609E-2,1.482614875E-2,-4.968833923E-2
1.248785530E1,9.188726544E-3,3.835599124E-2,-2.528285980E-2
1.249786507E1,2.830189094E-2,4.723052680E-2,-4.868412018E-2
1.250790535E1,-8.915625513E-4,6.508448720E-2,2.770328522E-2
1.251791512E1,-3.932807222E-2,1.665537059E-2,-4.817581177E-2
1.252792489E1,3.580198437E-2,1.991838217E-3,2.345848083E-2
1.253796517E1,-4.136403278E-2,-3.116787970E-2,8.977890015E-3
1.254800545E1,-6.927800179E-2,-5.420100689E-2,3.963470459E-3
1.255801522E1,-3.092543781E-2,1.283183694E-2,-5.275058746E-2
1.256802498E1,1.892562956E-3,-1.610037684E-2,5.095481873E-3
1.257803475E1,1.456152648E-3,-6.372854114E-3,7.102584839E-2
1.258807503E1,-1.708275825E-2,3.177173436E-2,2.280044556E-2
1.259808480E1,-4.015570879E-2,2.206991613E-2,-1.057910919E-2
1.260812508E1,3.187064081E-3,7.753670216E-3,-1.499366760E-2
1.261813485E1,2.991739661E-3,3.161565959E-2,3.254508972E-2
1.262814461E1,3.395490348E-3,3.138586879E-3,3.871917725E-3
1.263818490E1,1.772424206E-2,-1.570132375E-2,3.238391876E-2
1.264819466E1,-5.948904902E-3,1.820014417E-2,4.151439667E-2
1.265823494E1,2.308189124E-2,-1.495811343E-2,-7.270717621E-2
1.266824471E1,2.305429429E-2,2.851355076E-2,1.853847504E-2
1.267825448E1,-2.450864390E-2,4.312559962E-3,2.334022522E-2
1.268826424E1,2.326175198E-2,1.871901751E-2,-3.862380981E-2
1.269830452E1,1.355464384E-2,2.774089575E-2,9.379386902E-3
1.270831429E1,-1.504850015E-2,-3.407070041E-2,-1.926803589E-2
1.271832406E1,-4.826374352E-4,2.355258167E-2,-5.912780762E-5
1.272836434E1,-1.009451225E-2,3.746570647E-2,-1.902294159E-2
1.273837410E1,-1.498644054E-2,-2.414630353E-2,3.796768188E-2
1.274838387E1,-4.760757089E-3,-3.746403754E-2,4.018783569E-3
1.275842415E1,-2.309023589E-2,3.944000602E-2,2.763557434E-2
1.276843392E1,1.338135451E-3,2.507269382E-2,-5.862236023E-3
1.277847420E1,4.465060309E-2,1.587058604E-2,-5.316066742E-2
1.278848397E1,1.091681421E-2,-3.180320561E-2,-4.302501678E-2
1.279852425E1,-2.289392799E-2,-3.687721491E-2,-6.131267548E-2
1.280853402E1,5.210056901E-3,4.858461022E-2,1.238384247E-1
1.281863533E1,1.017503440E-2,-2.807262540E-2,-1.387567520E-1
1.282867562E1,2.835850045E-2,5.567520857E-3,5.341625214E-2
1.284356820E1,-2.762837335E-2,1.330494881E-3,2.376651764E-2
1.285360848E1,-3.532725945E-2,3.051602840E-2,-4.526138306E-3
1.286367928E1,5.538159609E-2,2.065928280E-2,-4.686450958E-2
1.287368904E1,3.052634746E-2,2.480281889E-2,4.365253448E-2
1.288372933E1,-3.135672212E-2,-2.755078673E-2,4.292488098E-2
1.289373909E1,2.178560197E-2,3.897042572E-2,3.278827667E-2
1.290374886E1,3.099981323E-2,5.521729589E-3,2.307701111E-2
1.291378914E1,1.158446074E-2,5.712196231E-3,-5.911827087E-3
1.292382943E1,-7.106531411E-3,-6.033560634E-2,-5.967140198E-3
1.293383919E1,-2.055881545E-2,1.198144257E-2,8.258819580E-3
1.294387948E1,-2.005949616E-2,2.671071887E-2,-2.961254120E-2
1.295388924E1,3.686286509E-3,3.155887127E-3,-3.861808777E-2
1.296389901E1,-3.928099945E-2,1.228238642E-2,-2.388191223E-2
1.297393929E1,-1.070933044E-2,1.644152403E-2,2.842807770E-2
1.298394906E1,-2.013268322E-2,-3.091752529E-3,-5.175590515E-3
1.299398934E1,3.610532731E-3,6.562530994E-3,-5.207061768E-3
1.300399910E1,-1.954150945E-2,6.732970476E-3,1.383686066E-2
1.301400887E1,-1.350989938E-2,-1.880571246E-3,-3.452301025E-4
1.302401864E1,-1.696554944E-2,8.765473962E-3,-5.356788635E-3
1.303402840E1,1.759872586E-2,5.217806995E-2,-3.849983215E-2
1.304406868E1,2.771462500E-2,4.753977060E-2,-2.351665497E-2
1.305407845E1,-1.054882258E-2,1.878112555E-2,-5.612850189E-2
1.306411873E1,-3.486602753E-2,-1.473671198E-2,1.112174988E-2
1.307412850E1,-3.483086824E-2,-3.856094182E-2,2.012252808E-2
1.308416878E1,7.323171943E-3,8.824571967E-3,-2.298355103E-2
1.309915291E1,-8.400037885E-2,-1.001818627E-1,5.328941345E-2
1.310916268E1,-4.024400190E-2,-1.332460344E-2,9.936332703E-3
1.311917244E1,5.993913859E-2,2.498634160E-2,-1.859760284E-2
1.312921273E1,2.654326335E-2,1.120389998E-2,9.937286377E-3
1.313925301E1,-2.086254209E-2,6.879866123E-3,-9.091377258E-3
1.314926278E1,-1.485798880E-2,3.542470932E-2,-3.279685974E-2
1.315927254E1,1.805297658E-2,3.466609120E-2,-3.684425354E-2
1.316928231E1,1.238247752E-2,1.486991346E-2,-2.681064606E-2
1.317932259E1,-4.598022252E-2,-1.890416443E-2,7.287502289E-2
1.318933236E1,-5.126450583E-2,9.766682982E-3,3.874588013E-2
1.319937264E1,-5.605952814E-2,4.538446665E-4,2.889823914E-2
1.320938241E1,2.061558142E-2,-1.329749823E-2,2.387619019E-2
1.321939217E1,-3.189723939E-3,-1.230548322E-2,-1.277923584E-4
1.322943245E1,-3.135052323E-2,-4.917320609E-2,4.465103149E-3
1.323944222E1,-2.101792768E-2,1.364190876E-2,-4.770278931E-3
1.324948250E1,1.744154096E-2,-5.667850375E-3,-9.404182434E-3
1.325949227E1,-1.657776907E-2,-1.521508396E-2,1.923942566E-2
1.326950203E1,-7.131356746E-3,1.767927408E-2,-3.311920166E-2
1.327954232E1,-4.522774369E-2,2.962931991E-3,3.358650208E-2
1.328955208E1,-1.596622169E-3,-2.554391325E-2,1.890754700E-2
1.329962288E1,-2.996095270E-2,-4.865892231E-2,-1.951694489E-2
1.330966317E1,-9.868852794E-3,4.620477557E-3,9.111404419E-3
1.332461678E1,2.891387790E-2,1.967495680E-2,-3.355312347E-2
1.333462654E1,9.324830025E-3,1.053333282E-2,-1.407718658E-2
1.334466683E1,-1.418616623E-2,2.921456099E-2,3.815746307E-2
1.335467659E1,5.798459053E-3,1.237094402E-3,2.785205841E-2
1.336471688E1,-3.539893404E-2,-1.750648022E-3,-1.042461395E-2
1.337472664E1,-5.706042051E-2,-1.814182103E-2,4.174232483E-2
1.338476693E1,-2.561787888E-2,-1.014126837E-2,1.755619049E-2
1.339477669E1,-3.668733314E-2,-3.348180652E-2,8.373928070E-2
1.340478646E1,-4.229191691E-2,-4.555450380E-2,8.246231079E-2
1.341485726E1,-7.990026474E-2,-6.831550598E-2,1.286401749E-1
1.342486702E1,2.870911732E-3,-1.367986202E-3,1.831092834E-1
1.343487679E1,2.004840970E-1,-1.985779405E-2,8.122730255E-2
1.344491707E1,-1.080740243E-1,4.289561510E-2,1.559286118E-1
1.345492684E1,-3.121559322E-2,-3.231915832E-2,-1.061096191E-1
1.346493660E1,-8.555155247E-2,3.674778342E-2,-1.847457886E-2
1.347497689E1,2.620022930E-2,6.508910656E-2,-1.120481491E-1
1.348498665E1,-6.408376619E-3,3.879526258E-2,-1.706676483E-1
1.349499642E1,-2.164464444E-3,4.440692067E-2,-2.081489563E-2
1.350500618E1,-2.801397257E-2,4.913309216E-2,-1.466083527E-2
1.351501595E1,-7.150252163E-2,8.184218407E-2,-1.397323608E-2
1.352505623E1,9.582662955E-3,9.977191687E-2,-1.776504517E-2
1.353509652E1,4.131400958E-2,4.671481252E-2,2.223968506E-3
1.354510628E1,5.799413472E-2,8.118450642E-3,-4.400157928E-2
1.355511605E1,-1.578964107E-2,-7.313799858E-2,-5.663299561E-2
1.356515633E1,-6.423637271E-2,-2.149528265E-2,2.104759216E-2
1.357516610E1,-3.207355738E-3,-1.310294867E-2,2.640914917E-2
1.358517586E1,-1.427513361E-2,-1.225876808E-2,1.358928680E-1
1.359521614E1,-1.988890395E-2,-1.842898130E-2,9.215164185E-2
1.360522591E1,8.428035304E-3,-2.147608995E-2,6.868267059E-2
1.361523568E1,-9.991383180E-3,-7.601320744E-3,6.442070007E-2
1.362524544E1,8.135624230E-4,-1.132154465E-2,7.001209259E-2
1.363528573E1,3.159009665E-2,-3.250116110E-2,3.299713135E-4
1.364532601E1,4.629071057E-2,3.600245714E-2,-4.018306732E-2
1.365533577E1,1.300529763E-2,3.069519997E-3,-1.173915863E-1
1.366534554E1,-1.073666848E-2,3.420430422E-2,-8.544445038E-2
1.367535530E1,2.688182518E-3,3.032392263E-2,-3.434658051E-2
1.368539559E1,-1.770506427E-2,3.039324284E-2,-1.306343079E-2
1.369540535E1,-6.017718837E-2,3.932249546E-2,4.600524902E-2
1.370544564E1,-6.405140460E-2,2.922523022E-2,-1.182556152E-4
1.371545540E1,-5.331800133E-2,1.446980238E-2,-4.529953003E-2
1.372546517E1,-5.689027905E-2,1.833277941E-2,-9.400367737E-3
1.373547493E1,-1.767952554E-2,7.438164949E-2,2.151393890E-2
1.374551522E1,2.548917755E-2,6.418138742E-2,1.878643036E-2
1.375555550E1,1.147100702E-3,3.160119057E-2,-2.190780640E-2
1.376556527E1,-3.715274110E-2,3.270447254E-2,-1.892089844E-2
1.377557503E1,-3.655610606E-2,1.917064190E-2,-6.781768799E-2
1.378561532E1,-1.769383065E-2,2.402985096E-2,-2.172470093E-2
1.379562508E1,-1.368146390E-2,3.756880760E-2,-1.041383743E-1
1.380566536E1,1.915952563E-2,1.221513748E-2,-8.108139038E-2
1.381567513E1,-2.456597239E-2,1.211285591E-3,2.851486206E-3
1.382568490E1,-5.692936853E-2,1.024150848E-2,5.795764923E-2
1.383572518E1,-3.668066859E-2,5.293655396E-2,-2.563571930E-2
1.384573494E1,-2.157105133E-2,6.230628490E-2,1.526355743E-2
1.385577523E1,-4.943745211E-2,1.088297367E-2,8.605957031E-3
1.386578499E1,-4.501734674E-2,4.579710960E-2,6.661415100E-3
1.387579476E1,-2.191656455E-2,7.183969021E-2,-2.787017822E-2
1.388580452E1,-3.457064740E-3,1.229870319E-2,2.785778046E-2
1.389584481E1,-5.013084039E-3,5.331146717E-2,-6.683349609E-3
1.390585457E1,-4.846581817E-2,-1.536965370E-3,-2.168655396E-2
1.391589486E1,-8.151435852E-2,1.193761826E-3,-2.252769470E-2
1.392590462E1,-7.050877064E-2,4.064059258E-2,-5.643939972E-2
1.393591439E1,-3.539568931E-2,7.409667969E-2,-4.688262939E-3
1.394595467E1,-1.310339198E-3,6.820797920E-2,-2.450180054E-2
1.395599495E1,-1.798783429E-3,2.838492393E-2,-3.948402405E-2
1.396600472E1,2.672132663E-2,6.309652328E-2,-6.412887573E-2
1.397601448E1,1.151209418E-2,5.684649944E-2,-6.482887268E-2
1.398602425E1,5.652856082E-3,2.575564384E-2,-2.773761749E-2
1.399606453E1,-3.428959846E-2,-2.923583984E-2,-9.431838989E-4
1.400607430E1,-4.995937645E-2,-5.165934563E-2,-4.100990295E-2
1.401608407E1,-3.575193882E-2,-1.773822308E-2,9.096145630E-3
1.402612435E1,-4.567216709E-2,5.952596664E-3,1.743316650E-3
1.403613411E1,-2.223489620E-2,3.033220768E-2,5.168342590E-2
1.404614388E1,-8.543524891E-2,2.770864964E-2,1.573371887E-2
1.405618416E1,-5.987249315E-4,2.625107765E-2,8.978843689E-3
1.406619393E1,-2.504557185E-2,1.514387131E-2,4.951095581E-2
1.407623421E1,7.414346561E-3,-1.934969425E-2,-1.885795593E-2
1.408624398E1,2.016670443E-2,3.146529198E-3,3.250122070E-3
1.409628426E1,-5.376227200E-4,2.619028091E-3,4.883384705E-2
1.410629403E1,-7.450800389E-3,-1.065218449E-2,3.765010834E-2
1.411630379E1,-8.048873395E-2,1.111388206E-2,4.083919525E-2
1.412631356E1,-5.792698264E-2,6.727671623E-2,-1.246833801E-2
1.413635384E1,-3.989791498E-2,5.913972855E-4,-3.292083740E-3
1.414636361E1,-1.252472401E-2,2.491033077E-2,1.089096069E-2
1.415637337E1,2.360618114E-2,-3.436446190E-3,-2.233123779E-2
1.416641366E1,4.570403695E-2,1.651394367E-2,8.183288574E-2
1.417642342E1,3.386278823E-2,2.220547199E-2,5.173683167E-3
1.418646370E1,2.213412896E-2,2.353632450E-2,1.017665863E-2
1.419650399E1,1.076603308E-2,-1.267302036E-2,-1.827144623E-2
1.420651375E1,-3.791477159E-2,9.031164646E-2,1.625061035E-3
1.421652352E1,-4.661811888E-2,6.311368942E-2,-1.399183273E-1
1.422656380E1,6.711035967E-4,5.811452866E-3,-7.082366943E-2
1.423657357E1,-5.694912001E-2,7.060742378E-2,-7.905006409E-3
1.424658333E1,-4.683390632E-2,7.605004311E-2,-4.590797424E-2
1.425662362E1,-1.375675574E-2,6.657028198E-2,-1.224899292E-2
1.426663338E1,2.335929126E-2,5.342602730E-2,7.774162292E-2
1.427664315E1,1.291842386E-2,-4.348254204E-2,3.401947021E-2
1.428668343E1,3.127300367E-2,9.153366089E-3,4.327583313E-2
1.429669320E1,8.263037354E-2,1.896643639E-2,-8.717536926E-3
1.430670296E1,1.953696832E-2,-1.377916336E-2,-2.937316895E-3
1.431671273E1,-4.322117940E-2,1.578569412E-2,3.603935242E-2
1.432675301E1,-5.767190084E-2,1.718306541E-2,1.286888123E-2
1.433676278E1,-5.218850821E-2,1.023769379E-2,6.161880493E-2
1.434680306E1,-8.396691084E-2,6.101179123E-2,1.040458679E-2
1.435681282E1,-5.294204131E-2,1.656222343E-2,-3.999519348E-2
1.436682259E1,-8.834321797E-2,9.721422195E-2,4.310894012E-2
1.437686287E1,-1.037001237E-2,1.385502815E-1,-3.079605103E-2
1.438690316E1,1.360943913E-2,6.077647209E-2,-4.074096680E-3
1.439691292E1,1.789466292E-2,2.074599266E-2,-5.354785919E-2
1.440692269E1,-4.475459084E-2,5.036139488E-2,-1.173343658E-1
1.441693245E1,-1.637843251E-2,5.360198021E-2,-6.187057495E-2
1.442697274E1,-6.042461097E-2,-3.861641884E-2,-2.685165405E-2
1.443701302E1,-6.560846418E-2,-4.011130333E-2,-3.507900238E-2
1.444702279E1,-5.042880401E-2,-6.366682053E-2,1.233549118E-1
1.445703255E1,1.442021281E-1,-6.685137749E-2,8.959007263E-2
1.446707283E1,-6.612397730E-2,4.573273659E-2,1.525020599E-2
1.447708260E1,5.817997083E-2,-4.546332359E-2,6.022834778E-2
1.448709236E1,-3.184758127E-3,-1.217103004E-2,-8.401489258E-2
1.449713265E1,3.597156703E-2,5.818676949E-2,-7.953739166E-2
1.450714241E1,4.973351583E-2,5.505657196E-2,-6.161403656E-2
1.451715218E1,4.432888702E-2,1.332616806E-2,-2.031898499E-2
1.452719246E1,-4.684094340E-3,9.365558624E-3,1.444816589E-3
1.453720223E1,-6.291443110E-2,2.644062042E-4,-7.158088684E-2
1.454721199E1,-5.840065330E-2,5.343008041E-2,-6.586074829E-3
1.455725228E1,-2.087303624E-2,5.448842049E-2,2.012157440E-2
1.456726204E1,-5.103533342E-2,3.237700462E-2,-5.444526672E-3
1.457727181E1,-5.074404180E-3,2.960968018E-2,-3.544902802E-2
1.458728157E1,-6.915602088E-2,2.648687363E-2,-1.028728485E-1
1.459732186E1,-3.678830713E-2,1.386857033E-2,-5.983638763E-2
1.460733162E1,4.103228450E-3,-3.279638290E-2,-3.228950500E-2
1.461737191E1,-3.696329892E-3,-3.452062607E-3,-9.475708008E-3
1.462738167E1,-1.661295816E-2,1.164746284E-2,3.130531311E-2
1.463742196E1,-2.494400740E-2,-2.546048164E-2,1.064968109E-2
1.464743172E1,1.982221007E-2,-1.857113838E-2,5.674362183E-2
1.465747200E1,-6.529234350E-3,-1.559972763E-3,3.119468689E-2
1.466748177E1,1.492213458E-2,-2.205967903E-2,1.620578766E-2
1.467749154E1,-3.964279592E-2,-5.128741264E-2,-1.296043396E-2
1.468753182E1,-7.384447753E-2,2.364087105E-2,-6.012058258E-2
1.469754158E1,-2.006560564E-3,3.542256355E-2,-1.709270477E-2
1.470755135E1,-2.261482179E-3,5.579853058E-2,-2.229404449E-2
1.471759163E1,-1.209576428E-2,7.562303543E-2,-4.640865326E-2
1.472760140E1,6.688706577E-3,5.238223076E-2,5.883216858E-3
1.473761116E1,-2.270925790E-2,1.095511913E-1,-2.307605743E-2
1.474765145E1,2.751091868E-2,6.192445755E-2,-5.631446838E-2
1.475766121E1,1.562882960E-2,4.816722870E-2,-2.713871002E-2
1.476770150E1,-8.522272110E-4,3.436756134E-2,-1.270389557E-2
1.477771126E1,-2.165941149E-2,5.734443665E-3,-3.536224365E-3
1.478775154E1,-4.156038910E-2,-3.697681427E-2,4.979133606E-3
1.479776131E1,-2.280031145E-2,-6.989812851E-2,1.367473602E-2
1.480780159E1,-5.105249584E-2,-5.466818810E-2,-2.487850189E-2
1.481781136E1,1.671656966E-2,-1.084804535E-2,3.191757202E-2
1.482782113E1,5.425015837E-2,1.319336891E-2,-4.930782318E-2
1.483783089E1,6.940044463E-3,3.408193588E-3,-2.535057068E-2
1.484787117E1,3.195133805E-2,4.070401192E-2,-1.599884033E-2
1.485791146E1,3.741174936E-3,6.751084328E-2,-8.665180206E-2
1.486792122E1,-2.061847597E-2,4.665637016E-2,-1.480197906E-2
1.487793099E1,1.501426101E-3,1.733541489E-2,5.604076385E-2
1.488794075E1,-8.582100272E-4,-2.457189560E-2,7.404518127E-2
1.489798104E1,-5.962898582E-2,-2.727723122E-2,-2.097415924E-2
1.490799080E1,-3.620225936E-2,-1.647949219E-3,-5.819320679E-3
1.491800057E1,-6.065969169E-2,3.677129745E-3,-7.566833496E-2
1.492804085E1,-1.774045080E-2,3.399133682E-3,-5.080509186E-2
1.493805062E1,5.344852805E-3,4.847002029E-2,-9.266281128E-2
1.494809090E1,4.904679954E-3,2.028441429E-2,-6.883907318E-2
1.495810067E1,2.419418097E-2,7.646322250E-2,-5.033206940E-2
1.496811043E1,3.840637207E-2,1.110408306E-1,-2.833080292E-2
1.497815072E1,3.208311647E-2,-6.582975388E-3,1.733112335E-2
1.498816048E1,7.361158729E-3,-6.536769867E-2,2.383327484E-2
1.499820076E1,-1.758360118E-2,-4.211425781E-3,5.469512939E-2
1.500821053E1,-9.016854316E-2,-3.699326515E-2,7.117748260E-2
1.501825081E1,-4.755599797E-2,-2.965235710E-2,6.021976471E-2
1.502826058E1,-7.678836584E-2,1.612114906E-2,-3.983879089E-2
1.503827034E1,-5.796932429E-2,4.318666458E-2,-1.022720337E-2
1.504828011E1,-6.350264698E-2,6.463861465E-2,-1.428031921E-2
1.505832039E1,-1.689540595E-2,2.820634842E-2,-9.426307678E-2
1.506833016E1,-4.274524748E-2,4.364871979E-2,6.304740906E-3
1.507833992E1,3.174693882E-2,3.485298157E-2,1.062488556E-2
1.508838021E1,1.085117459E-3,4.057598114E-2,-3.707122803E-2
1.509838997E1,-1.414264739E-2,2.628374100E-2,-7.948017120E-2
1.510839974E1,-5.251919478E-2,6.735849380E-2,-1.265306473E-1
1.511844002E1,-4.746732116E-2,4.426145554E-2,-3.625392914E-2
1.512844979E1,-1.495546848E-2,4.422426224E-2,-2.406787872E-2
1.513845955E1,1.662234217E-2,2.515506744E-2,2.117729187E-2
1.514849984E1,4.749093950E-2,5.959510803E-3,-5.297183990E-2
1.515854012E1,7.075384259E-3,-1.783227921E-2,-1.696014404E-2
1.516854989E1,-8.678786457E-3,-9.037494659E-3,-2.943897247E-2
1.517868172E1,-3.808385879E-2,-6.630897522E-3,-7.531070709E-2
1.519360482E1,3.786730021E-2,1.730251312E-2,-6.634902954E-2
1.520364510E1,-6.531067193E-3,6.688117981E-3,-8.078765869E-2
1.521365486E1,2.143785357E-2,-1.557397842E-2,-1.094589233E-1
1.522369515E1,-7.448866963E-3,-1.122379303E-2,-1.105480194E-1
1.523370491E1,-2.248565108E-2,5.302906036E-3,-6.033039093E-2
1.524374520E1,9.703263640E-3,-3.091955185E-2,-1.475334167E-3
1.525375496E1,-2.149008214E-3,-3.735160828E-2,5.175113678E-2
1.526379525E1,-4.650101066E-2,1.411056519E-2,2.887535095E-2
1.527380501E1,-2.735085785E-2,-1.047706604E-2,1.753807068E-3
1.528381478E1,-1.784402132E-2,1.718187332E-2,-1.991271973E-2
1.529385506E1,-2.612791955E-3,8.587932587E-2,-6.553173065E-2
1.530386483E1,1.209893078E-2,9.570598602E-2,2.733230591E-3
1.531390511E1,5.525598675E-2,8.049726486E-2,-6.782722473E-2
1.532391488E1,1.748777926E-2,8.835268021E-2,-4.784011841E-2
1.533392464E1,5.223755538E-2,5.253839493E-2,8.840560913E-3
1.534393441E1,-5.075886846E-2,9.592628479E-2,-6.356239319E-2
1.535397469E1,-5.831167102E-2,7.534313202E-2,-9.720420837E-2
1.536398446E1,-8.183898777E-2,5.768013000E-2,-1.563348770E-1
1.537399422E1,-4.362123460E-2,7.466411591E-2,-2.063875198E-1
1.538403450E1,-2.430797368E-2,5.381441116E-2,-2.148618698E-1
1.539404427E1,8.278213441E-3,-5.038213730E-2,-1.670455933E-2
1.540405404E1,3.087602556E-3,-6.081390381E-2,-2.678680420E-2
1.541412484E1,-6.422422826E-3,-6.410217285E-2,-9.863853455E-2
1.542910897E1,5.851121247E-2,-2.588272095E-3,-9.069728851E-2
1.543911873E1,3.268942982E-2,1.483678818E-2,-1.030397415E-1
1.544912850E1,2.125108987E-2,9.755134583E-3,-6.957912445E-2
1.545916878E1,-5.668883026E-2,2.113819122E-3,-7.041549683E-2
1.546917855E1,-7.244865596E-2,6.328988075E-2,-8.181571960E-2
1.547918831E1,-4.659856856E-2,-5.893945694E-3,-8.106231689E-3
1.548922860E1,-4.563982040E-2,-4.634833336E-2,4.998207092E-2
1.549923836E1,1.988485456E-3,-3.384685516E-2,8.376502991E-2
1.550924813E1,-7.459503412E-2,-1.125836372E-2,1.033000946E-1
1.551928841E1,1.174768060E-2,2.038717270E-3,3.333663940E-2
1.552929818E1,-4.580209404E-2,1.992464066E-2,-4.480171204E-2
1.553933846E1,2.062211931E-2,7.471299171E-2,-3.437995911E-3
1.554934823E1,1.488751173E-2,2.433037758E-2,6.574249268E-2
1.555935799E1,5.723123252E-2,1.252651215E-2,1.120758057E-2
1.556939827E1,5.647817254E-2,-4.258036613E-2,5.249691010E-2
1.557940804E1,7.759034634E-3,-6.373167038E-2,4.621315002E-2
1.558941781E1,-4.021866620E-2,-7.877969742E-2,7.878971100E-2
1.559945809E1,-2.978470176E-2,-6.838798523E-3,6.406116486E-2
1.560946785E1,-6.624567509E-2,1.351737976E-2,4.995155334E-2
1.561950814E1,-6.162986159E-3,7.719850540E-2,7.445430756E-2
1.562951790E1,4.957776517E-2,1.174066067E-1,2.754020691E-2
1.563955819E1,7.147769630E-2,1.427567005E-1,-2.399730682E-2
1.564956795E1,1.034287363E-2,7.661104202E-2,-2.766704559E-2
1.565966927E1,4.439128935E-2,-9.301185608E-3,3.076171875E-2
1.567462288E1,5.598630756E-2,-1.203680038E-2,1.212263107E-1
1.568963753E1,-5.307309330E-3,-2.702903748E-2,8.840751648E-2
1.569970833E1,-1.150117069E-1,-6.078791618E-2,7.206249237E-2
1.570974862E1,-8.955501765E-2,-2.206325531E-3,8.980751038E-2
1.572473275E1,-2.986286581E-2,2.215242386E-2,1.195812225E-2
1.573477303E1,-1.412161440E-2,5.797576904E-2,8.799076080E-2
1.574481331E1,-9.165756404E-3,6.957030296E-2,-8.190155029E-3
1.575485360E1,9.239979088E-3,3.761291504E-2,-3.249168396E-2
1.576486336E1,2.308052778E-2,-2.837562561E-2,5.321502686E-3
1.577487313E1,1.314397901E-2,-4.255533218E-2,-1.659393311E-4
1.578491341E1,1.842146367E-2,-5.739116669E-2,4.209232330E-2
1.579492318E1,2.854079753E-2,4.400014877E-3,6.049060822E-2
1.580493294E1,1.992059499E-2,-3.380250931E-2,7.919979095E-2
1.581494271E1,5.885556340E-3,-5.672907829E-2,5.517768860E-2
1.582498299E1,2.986525744E-2,-3.085017204E-2,9.380722046E-2
1.583499276E1,-8.003138006E-3,-7.147288322E-2,8.472537994E-2
1.584503304E1,-1.287623495E-2,-5.029630661E-2,8.769989014E-3
1.585504281E1,-3.625111282E-2,-5.284166336E-2,4.790306091E-3
1.586505257E1,8.290402591E-3,-3.657722473E-2,3.379058838E-2
1.587509285E1,1.900662482E-2,4.921936989E-2,-8.666038513E-3
1.589007698E1,2.581799775E-2,6.975317001E-2,2.570915222E-2
1.590008675E1,-1.693949103E-3,5.467844009E-2,9.804821014E-2
1.591012703E1,1.844497025E-2,3.969430923E-2,4.614162445E-2
1.592016732E1,3.080815077E-4,8.306956291E-2,8.553314209E-2
1.593017708E1,2.589561045E-2,7.001757622E-2,1.155700684E-1
1.594018685E1,-2.603445202E-2,3.909182549E-2,1.029930115E-1
1.595019661E1,-5.350321531E-2,-5.033731461E-3,3.339004517E-2
1.596023690E1,-2.767895907E-2,3.670954704E-2,-1.208305359E-2
1.597024666E1,-2.914242446E-3,-3.798961639E-3,-4.801082611E-2
1.598025643E1,-6.875291467E-3,1.246547699E-2,6.902694702E-3
1.599029671E1,1.423414052E-2,9.365558624E-3,1.000270844E-1
1.600030648E1,7.834201306E-2,-1.212239265E-2,9.284496307E-2
1.601031624E1,1.291786507E-2,-4.230213165E-2,7.155418396E-2
1.602035653E1,4.296829179E-2,-2.421689034E-2,4.578208923E-2
1.603036629E1,2.998734638E-2,-2.044677734E-2,1.538467407E-2
1.604040657E1,5.055656284E-2,1.134204865E-2,2.324008942E-2
1.605041634E1,2.721853182E-2,-4.816389084E-2,4.547882080E-2
1.606540531E1,-1.936833933E-2,-5.437827110E-2,1.029930115E-1
1.607544559E1,2.558697388E-2,3.652560711E-2,1.017751694E-1
1.608545536E1,1.301336288E-2,5.765318871E-2,1.201934814E-1
1.609549564E1,-5.203460902E-2,9.516572952E-2,1.008100510E-1
1.610550541E1,-2.555057779E-2,6.239748001E-2,1.097164154E-1
1.611554569E1,-3.616407514E-3,7.781207561E-2,9.431266785E-2
1.612555546E1,2.955947071E-3,4.621767998E-2,-5.865097046E-3
1.613556522E1,-4.397455603E-2,3.367078304E-2,4.594802856E-3
1.614557499E1,-3.777291626E-2,-2.205145359E-2,5.308151245E-3
1.615561527E1,-2.304364741E-2,-1.644098759E-2,2.006435394E-2
1.616565555E1,-1.312245429E-2,2.519249916E-3,3.904151917E-2
1.617566532E1,-2.740382403E-2,2.148473263E-2,3.439617157E-2
1.618567508E1,-1.704641432E-2,1.728963852E-2,6.287193298E-2
1.619571537E1,-2.163761109E-2,3.206729889E-4,1.055955887E-1
1.620572513E1,-1.581669226E-2,-1.031446457E-2,1.099729538E-1
1.621576542E1,-2.416512743E-2,-4.862618446E-2,8.117008209E-2
1.622577518E1,-4.096013308E-2,-4.700064659E-3,4.849529266E-2
1.623578495E1,2.753512561E-2,-1.898014545E-2,-3.577518463E-2
1.624582523E1,2.838006616E-2,-2.460706234E-2,3.255462646E-2
1.625583500E1,-8.722208440E-3,1.756858826E-2,4.323101044E-2
1.626584476E1,-1.223501004E-2,3.920257092E-2,-3.458976746E-3
1.627588505E1,3.459012136E-3,-1.487171650E-2,4.101371765E-2
1.628589481E1,9.776933119E-3,-4.407155514E-2,6.550407410E-2
1.629590458E1,-3.127085418E-2,-1.548695564E-2,8.060169220E-2
1.630594486E1,2.282314934E-2,-3.815746307E-2,8.121776581E-2
1.631595463E1,-4.437664524E-3,-1.168966293E-2,5.366134644E-2
1.632599491E1,-1.333046518E-2,2.031242847E-2,7.853221893E-2
1.633600468E1,2.086646669E-2,1.502859592E-2,5.119609833E-2
1.634601444E1,-5.398677289E-2,2.898061275E-2,-2.262401581E-2
1.635605472E1,-9.481210262E-3,1.812350750E-2,3.244113922E-2
1.636606449E1,-3.175494447E-2,4.976761341E-2,1.652717590E-3
1.637607426E1,2.670300379E-2,3.321218491E-2,-2.231597900E-4
1.638611454E1,3.378122114E-3,4.559278488E-2,1.113510132E-1
1.639612430E1,-1.558055356E-2,-2.866387367E-3,5.084514618E-2
1.640613407E1,-1.163942739E-3,-4.465854168E-2,8.129501343E-2
1.641617435E1,-2.939380519E-2,2.756118774E-4,8.758163452E-2
1.642618412E1,1.822428405E-2,-5.882501602E-3,4.690456390E-2
1.643622440E1,6.121868640E-2,-3.020882607E-2,5.892944336E-2
1.644623417E1,9.077361785E-3,-4.920160770E-2,1.406002045E-2
1.645624393E1,-3.292152658E-2,-1.073074341E-2,-2.065086365E-2
1.646625370E1,-1.789216325E-2,3.310441971E-3,2.064704895E-3
1.647629398E1,1.119946316E-2,-2.625238895E-2,1.019287109E-2
1.648630375E1,-2.996545285E-3,2.966642380E-2,3.702259064E-2
1.649634403E1,-3.258731216E-3,1.350033283E-2,3.971481323E-2
1.650635380E1,1.008236874E-2,1.670134068E-2,1.554489136E-4
1.651636356E1,2.822816744E-2,-2.747094631E-2,3.687095642E-2
1.652640384E1,3.698021173E-3,-1.905131340E-2,5.401992798E-2
1.653641361E1,-5.906829610E-3,-1.029181480E-2,2.350807190E-2
1.654645389E1,2.776179463E-2,4.613280296E-2,4.071426392E-2
1.655646366E1,4.438931122E-3,2.622282505E-2,4.347896576E-2
1.656647342E1,-9.652072564E-3,-2.668166161E-2,-2.459239960E-2
1.657651371E1,-4.113434814E-3,9.928941727E-4,-3.001403809E-2
1.658652347E1,-2.293093503E-2,3.106033802E-2,-3.082275391E-2
1.659656376E1,-1.258572377E-2,-5.675435066E-3,8.198261261E-2
1.660657352E1,-2.511659637E-3,3.324043751E-2,6.020927429E-2
1.661661381E1,4.496644810E-2,4.879570007E-2,6.285285950E-2
1.662662357E1,1.652547345E-2,1.677548885E-2,3.819465637E-3
1.663663334E1,1.234291214E-2,3.436625004E-3,-5.907344818E-2
1.664667362E1,-1.115000714E-2,-6.375873089E-2,-7.376480103E-2
1.665668339E1,-3.403003886E-2,2.376157045E-2,-5.999946594E-2
1.666669315E1,-4.769863933E-2,2.246367931E-2,-3.727245331E-2
1.667673344E1,-1.905007288E-2,3.042256832E-2,6.553745270E-2
1.668674320E1,-3.885791823E-2,4.776942730E-2,1.076698303E-3
1.669678348E1,-3.417529911E-2,2.343773842E-2,7.512378693E-2
1.670679325E1,1.349411998E-2,1.469230652E-2,2.499866486E-2
1.671680302E1,1.783541031E-2,2.046495676E-2,1.825618744E-2
1.672684330E1,3.137477860E-2,-3.619122505E-2,2.497673035E-3
1.673685306E1,1.214091666E-2,-5.525338650E-2,-5.130577087E-2
1.674689335E1,-6.319820881E-3,-2.852219343E-2,-2.850914001E-2
1.675690311E1,-3.871842101E-2,-3.158724308E-2,2.228641510E-2
1.676691288E1,-2.385862917E-2,1.202428341E-2,3.435993195E-2
1.677695316E1,-3.966797609E-3,1.715987921E-2,1.812267303E-2
1.678696293E1,-2.953084651E-3,-2.039778233E-2,2.078628540E-2
1.679700321E1,-2.563396841E-2,-2.526861429E-2,-3.300476074E-2
1.680701298E1,-1.511284523E-2,-3.121727705E-2,-1.076602936E-2
1.681702274E1,-2.815239131E-2,1.917326450E-2,6.836223602E-2
1.682706302E1,1.022793725E-2,-2.059102058E-2,7.978153229E-2
1.683707279E1,2.432261221E-2,3.863453865E-3,1.007833481E-1
1.684708256E1,6.690636277E-2,3.269135952E-3,1.641540527E-1
1.685712284E1,1.845862344E-2,-2.608019114E-2,1.794404984E-1
1.686713260E1,8.771230467E-3,-8.553564548E-3,1.617193222E-1
1.687714237E1,1.845855638E-2,-1.642066240E-2,8.278560638E-2
1.688715214E1,8.946344256E-3,-1.282322407E-2,6.712722778E-2
1.689719242E1,-5.045954604E-4,-3.849267960E-3,-6.074905396E-4
1.690720219E1,-1.935282350E-2,-2.349489927E-2,-1.039695740E-2
1.691724247E1,-5.711849779E-2,-7.548165321E-2,2.721691132E-2
1.692725223E1,-1.820768788E-2,-1.792836189E-2,8.318805695E-2
1.693726200E1,1.546135731E-2,1.532942057E-3,2.959632874E-2
1.694730228E1,7.165408134E-2,-2.567854524E-2,1.461505890E-2
1.695731205E1,5.056102201E-2,4.681169987E-3,-4.549026489E-3
1.696732181E1,2.102013677E-3,-7.523417473E-3,-1.410484314E-2
1.697736210E1,-4.017622769E-2,1.786938310E-2,-2.815818787E-2
1.698737186E1,1.271756832E-2,-5.309641361E-3,-8.748054504E-3
1.699738163E1,-1.610022970E-2,-9.197652340E-3,2.898502350E-2
1.700742191E1,-6.540026516E-3,1.519608498E-2,1.403045654E-2
1.701746219E1,-3.043725714E-2,-5.079033971E-2,-1.490020752E-2
1.702747196E1,-7.754551619E-2,-7.831212878E-2,1.839160919E-2
1.703748173E1,-2.406816743E-2,2.687811852E-3,3.217506409E-2
1.704752201E1,3.734353557E-2,-3.036171198E-3,-5.374431610E-2
1.705753177E1,1.308569591E-2,-3.247815371E-2,4.624080658E-2
1.706754154E1,4.617762938E-2,-3.304520249E-2,2.678871155E-3
1.707758182E1,-2.553938329E-2,-3.321552277E-2,3.111648560E-2
1.708759159E1,8.148450404E-3,-9.787827730E-3,4.959583282E-2
1.709760135E1,1.309526153E-2,4.704901576E-2,2.966117859E-2
1.710764164E1,-9.798876010E-3,-1.536881924E-2,-2.307033539E-2
1.711765140E1,-1.404314768E-2,-6.607532501E-3,-4.202938080E-2
1.712769169E1,-2.798983455E-2,4.430782795E-2,-1.787376404E-2
1.713770145E1,-4.171263427E-2,-2.888551354E-2,-8.305549622E-3
1.714774174E1,-5.063576996E-2,1.255220175E-2,2.457714081E-2
1.715775150E1,1.168912649E-2,2.414086461E-2,1.925277710E-2
1.716776127E1,1.079980750E-2,-4.001244903E-2,4.241466522E-2
1.717780155E1,9.684280958E-4,-6.927642226E-2,2.738857269E-2
1.718781132E1,1.472435705E-2,-1.252552867E-2,3.130626678E-2
1.719782108E1,5.248476192E-2,1.371324062E-3,3.996086121E-2
1.720786136E1,-2.416858822E-2,1.310557127E-3,2.505016327E-2
1.721787113E1,1.880674623E-2,1.144206524E-2,5.290412903E-2
1.722788090E1,-1.048239507E-2,3.168281913E-2,-4.554748535E-3
1.723792118E1,-2.417204529E-2,-3.334602714E-2,-4.548072815E-3
1.724793094E1,-5.142042786E-2,1.281678677E-3,-5.656433105E-2
1.725797123E1,-2.472719178E-3,-3.762543201E-3,-8.747100830E-3
1.726798099E1,-3.065690212E-2,-2.350443602E-2,-1.369762421E-2
1.727799076E1,-3.515431285E-2,2.826741338E-2,-9.103775024E-3
1.728803104E1,2.860162407E-3,1.261475682E-2,3.360366821E-2
1.729804081E1,1.943705487E-3,6.840297580E-2,9.316444397E-3
1.730805057E1,2.952860110E-2,5.929142237E-3,-4.682540894E-4
1.731809086E1,4.212940857E-2,-2.177178860E-2,4.673671722E-2
1.732810062E1,-1.599706337E-2,-2.065873146E-2,3.168201447E-2
1.733814090E1,-6.374212448E-3,1.374641061E-2,-1.958847046E-3
1.734815067E1,-1.152701676E-2,-1.838532090E-2,-2.030372620E-3
1.735816044E1,-2.537357621E-2,-3.049725294E-2,6.394767761E-2
1.736820072E1,-1.544045191E-2,5.164325237E-3,3.447341919E-2
1.737821048E1,-5.916938186E-3,-1.117601991E-2,3.372764587E-2
1.738825077E1,-5.770039186E-2,-1.617905498E-2,5.199432373E-2
1.739826053E1,2.832552418E-4,1.797392964E-2,5.601215363E-2
1.740827030E1,5.731103010E-3,-2.330741286E-2,-3.947639465E-2
1.741831058E1,-1.252963953E-2,-2.120432258E-2,-5.806922913E-3
1.742832035E1,2.312796656E-3,3.164595366E-2,-7.186794281E-2
1.743836063E1,1.678790897E-2,2.042818069E-2,-7.070827484E-2
1.744837040E1,1.224805415E-2,2.186715603E-2,-5.544662476E-2
1.745838016E1,-3.089339659E-2,3.559759259E-2,-7.353115082E-2
1.746838993E1,-4.971407726E-2,-3.567636013E-3,3.145503998E-2
1.747843021E1,-1.159361098E-2,1.489636302E-2,2.611732483E-2
1.748847050E1,-2.596372552E-2,-2.284964919E-2,2.540874481E-2
1.749848026E1,8.184245788E-3,2.620875835E-3,7.218647003E-2
1.750849003E1,3.259535506E-2,-9.027600288E-3,4.840850830E-3
1.751856083E1,2.300651371E-2,-5.316451192E-2,1.398277283E-2
1.752863163E1,9.008051828E-3,-6.539314985E-3,-1.478385925E-2
1.754352421E1,-2.792502753E-2,2.831374109E-2,-5.149841309E-3
1.755353397E1,-3.645482659E-2,1.910641789E-3,-2.391719818E-2
1.756360477E1,-7.410793565E-3,6.988839805E-2,-1.889705658E-2
1.757364506E1,-7.806689944E-3,4.130110145E-3,-4.405975342E-3
1.758365482E1,-3.717755899E-2,-1.291608810E-2,4.779434204E-2
1.759369510E1,1.490927860E-2,-1.979888976E-2,5.623722076E-2
1.760870975E1,-2.836578712E-2,-2.093818784E-2,3.659439087E-2
1.761871952E1,-1.856184378E-2,2.644076943E-3,1.211357117E-2
1.762872928E1,1.011255942E-2,1.676926017E-2,1.187515259E-2
1.763876957E1,5.866374820E-3,-4.062427580E-2,1.682186127E-2
1.764880985E1,-1.789748296E-2,1.662740111E-2,-4.974269867E-2
1.765881962E1,-2.240425535E-2,5.352051556E-2,2.816200256E-3
1.766885990E1,1.589955576E-2,2.826550603E-2,-6.656646729E-3
1.767886966E1,6.001248490E-3,-1.761078835E-3,-1.580142975E-2
1.768890995E1,-4.204512015E-2,1.069134474E-2,2.218341827E-2
1.769891971E1,3.357909620E-2,1.788261533E-2,2.675914764E-2
1.770892948E1,-2.432653680E-2,-7.761687040E-3,1.684856415E-2
1.771893924E1,-1.034902781E-2,-3.772145510E-2,3.080844879E-2
1.772894901E1,-1.993010007E-2,1.814587414E-2,7.297039032E-2
1.773898929E1,-5.854730261E-4,-6.755664945E-3,1.538181305E-2
1.774899906E1,1.365711447E-2,-1.764255762E-2,-3.690147400E-2
1.775900883E1,-1.510920096E-2,1.901799440E-2,2.058601379E-2
1.776904911E1,2.285199985E-2,2.683404088E-2,2.978229523E-2
1.777908939E1,-1.245418913E-3,2.047520876E-2,5.877494812E-3
1.778909916E1,3.197734943E-3,9.580671787E-3,-3.770828247E-3
1.779910892E1,4.030467942E-2,8.027821779E-3,-3.701972961E-2
1.780911869E1,-3.270024061E-2,-8.425436914E-2,-3.170013428E-2
1.781915897E1,-9.637395851E-3,-3.355693817E-2,6.789207458E-3
1.782916874E1,-9.950109757E-3,7.293552160E-3,3.967094421E-2
1.783920902E1,-2.452147007E-2,4.875540733E-3,-2.746200562E-2
1.784921879E1,-5.539890844E-3,-2.990157902E-2,-1.731586456E-2
1.785922855E1,-3.854556754E-2,-7.471397519E-3,-3.613281250E-2
1.786923832E1,1.389567740E-2,1.926024258E-2,2.585220337E-2
1.787927860E1,-8.286335506E-4,2.705350518E-3,-2.179718018E-2
1.788928837E1,4.110407829E-2,-8.487284184E-3,6.823539734E-3
1.789932865E1,-1.246787701E-2,-2.005204558E-2,-7.450103760E-3
1.790933842E1,-3.693726286E-2,-1.243525743E-2,1.636981964E-2
1.791934818E1,-2.784892917E-2,-3.777281940E-2,2.564239502E-2
1.792938846E1,-4.159408435E-2,3.254963458E-2,1.476287842E-3
1.793939823E1,-1.252315938E-2,1.707994938E-2,-3.534317017E-3
1.794940800E1,-1.669299044E-2,-7.260173559E-3,6.202697754E-3
1.795944828E1,1.668269932E-2,2.061381936E-3,-4.131126404E-2
1.796945804E1,1.667520218E-2,4.881468415E-2,-3.132915497E-2
1.797949833E1,6.364968419E-2,3.306183219E-2,2.008438110E-3
1.798950809E1,2.380492538E-2,2.853348851E-3,-2.389907837E-3
1.799951786E1,2.227426320E-2,1.079203188E-2,7.106781006E-3
1.800961918E1,-2.157252654E-2,-9.205490351E-4,1.202201843E-2
1.802454227E1,-5.104365945E-2,-4.669199884E-2,-6.775856018E-3
1.803458256E1,-6.961594522E-2,-2.304315567E-4,1.491012573E-1
1.804462284E1,7.809269242E-3,4.638244212E-2,-7.091999054E-2
1.805463260E1,-1.457174309E-3,1.708613336E-2,1.117706299E-3
1.806470340E1,-1.050894428E-2,1.664270461E-2,1.048088074E-2
1.807471317E1,-1.432954799E-2,1.624803245E-2,-4.620742798E-2
1.808472294E1,1.886818558E-2,2.953810990E-2,-3.138542175E-3
1.809473270E1,1.286603790E-2,-1.908430457E-2,1.600933075E-2
1.810477298E1,-2.634094469E-2,-2.920956910E-2,6.187438965E-3
1.811478275E1,-2.664811537E-2,-1.986312866E-2,-2.691650391E-2
1.812482303E1,-1.329362672E-2,-1.053011417E-2,4.957866669E-2
1.813483280E1,2.912715077E-2,3.452003002E-3,7.700347900E-2
1.814484256E1,3.278717026E-2,-3.453230858E-2,8.583068848E-6
1.815485233E1,-1.010670047E-2,-1.067639887E-2,1.893043518E-2
1.816489261E1,-1.909050718E-2,1.314970851E-2,-1.125335693E-4
1.817490238E1,3.369058669E-2,5.569919944E-2,-4.925727844E-3
1.818494266E1,-1.002736390E-4,2.613906562E-2,1.410198212E-2
1.819495243E1,-2.940976992E-2,3.454346955E-2,-3.813838959E-2
1.820499271E1,-2.060004137E-2,3.333395720E-2,1.471519470E-2
1.821500248E1,-2.612641640E-2,-3.434105217E-2,5.194664001E-3
1.822501224E1,-3.633376956E-2,-2.033960819E-2,2.260208130E-4
1.823502201E1,-2.677454054E-2,-6.110161543E-3,3.333950043E-2
1.824503177E1,-2.168356441E-2,3.504127264E-3,1.862525940E-2
1.825507206E1,1.222200785E-2,-1.558560133E-2,-9.980201721E-3
1.826511234E1,-2.557411417E-2,-1.052379608E-3,-1.659393311E-4
1.827512211E1,-1.179317012E-3,-1.125827432E-3,-2.050399780E-4
1.828516239E1,-9.297160432E-4,-9.611397982E-4,-2.872180939E-2
1.829517216E1,-4.804817960E-2,-5.799502134E-3,3.327846527E-2
1.830518192E1,-3.778385743E-2,3.533035517E-3,-5.255699158E-3
1.831522220E1,-1.343675330E-2,2.272200584E-2,9.035110474E-3
1.832523197E1,-3.487481736E-3,2.237777412E-2,-2.443504333E-2
1.833524174E1,4.838022217E-2,3.095258772E-2,1.384639740E-2
1.834525150E1,-9.569849819E-3,3.034757078E-2,-9.850502014E-3
1.835529178E1,-5.710565485E-3,1.490147412E-2,-3.290176392E-4
1.836530155E1,-3.063321672E-2,-2.998858690E-4,-1.445674896E-2
1.837534183E1,-2.396062948E-3,1.776963472E-2,3.748893738E-2
1.838535160E1,3.502322733E-2,-6.275802851E-3,-2.487564087E-2
1.839536136E1,-4.152794927E-2,-3.915166855E-2,-9.984970093E-4
1.840540165E1,-6.429679692E-2,-1.945094764E-2,1.327514648E-2
1.841541141E1,-6.349102594E-3,5.694337189E-2,3.193378448E-2
1.842542118E1,3.220420703E-2,5.181272328E-2,-1.583194733E-2
1.843546146E1,7.831828669E-3,-1.499943435E-2,-8.671092987E-2
1.844550174E1,1.160307415E-2,-3.427849710E-2,-4.909515381E-3
1.845551151E1,-1.791257225E-2,1.778231561E-2,-1.010894775E-4
1.846552128E1,1.967024431E-2,5.014154315E-2,4.244518280E-2
1.847556156E1,-1.379620470E-2,1.173448563E-2,1.804065704E-2
1.848557133E1,-9.391352534E-3,1.174846292E-2,-3.405761719E-2
1.849558109E1,4.380976781E-3,-3.124213219E-2,-4.767322540E-2
1.850562137E1,2.707165666E-2,1.117317379E-2,-9.093284607E-3
1.851563114E1,-2.362411469E-3,5.314315856E-2,6.694984436E-2
1.852567142E1,-3.594081849E-2,-3.306831419E-2,3.258991241E-2
1.853568119E1,-8.721835166E-2,-2.818603814E-2,2.752685547E-2
1.854569095E1,-9.985703975E-3,9.463295341E-3,7.992744446E-3
1.855573124E1,1.404661871E-2,1.843787730E-2,-2.511119843E-2
1.856574100E1,-1.890266500E-2,8.856207132E-3,3.680324554E-2
1.857578129E1,-3.691863269E-3,4.226495326E-2,-1.607894897E-2
1.858579105E1,4.486447573E-2,3.708116710E-2,2.218818665E-2
1.859583134E1,-2.524620853E-3,-7.850378752E-4,-2.060222626E-2
1.860584110E1,-3.983390331E-2,-8.277297020E-4,3.481864929E-3
1.861585087E1,-1.100714225E-2,4.166685045E-2,-3.899192810E-2
1.862586063E1,2.766959369E-3,1.214282215E-2,-5.182266235E-3
1.863590092E1,-4.059270397E-2,-5.047312379E-2,-2.391052246E-2
1.864591068E1,-8.805367351E-2,-2.661001682E-2,1.898670197E-2
1.865595096E1,-5.848560110E-2,1.583936810E-2,1.395416260E-2
1.866596073E1,2.274163067E-2,-8.272722363E-3,3.863334656E-3
1.867597050E1,3.505361266E-3,-6.938955188E-2,-1.027679443E-2
1.868601078E1,2.337422781E-2,7.887601852E-3,4.181861877E-2
1.869602054E1,9.880775586E-3,4.159206152E-2,2.226352692E-2
1.870603031E1,1.059338637E-2,2.309598029E-2,-4.438304901E-2
1.871607059E1,-2.214339375E-2,1.388683915E-2,-3.884792328E-2
1.872608036E1,-3.635752015E-3,3.710515797E-2,-3.341293335E-2
1.873609012E1,-1.866136119E-2,4.018561542E-2,2.865219116E-2
1.874613041E1,3.841171041E-3,1.961675286E-2,3.311061859E-2
1.875614017E1,-3.031364083E-2,-3.363157809E-2,1.371860504E-2
1.876614994E1,-5.397209525E-2,-1.454144716E-2,2.784442902E-2
1.877619022E1,-1.014793105E-2,1.404333115E-2,3.562927246E-3
1.878619999E1,9.885361418E-3,4.784762859E-3,7.479095459E-2
1.879624027E1,4.379822686E-2,1.028500497E-2,-4.951858521E-2
1.880625004E1,-2.706464753E-2,6.024211645E-3,-1.084899902E-2
1.881625980E1,-4.434402660E-2,1.638405025E-2,2.720546722E-2
1.882626957E1,-9.498343803E-3,5.454245210E-2,-2.519416809E-2
1.883630985E1,4.276736826E-2,1.716539264E-3,-5.760669708E-2
1.884631962E1,1.313731819E-2,-7.954910398E-3,4.551887512E-3
1.885635990E1,2.632983401E-2,1.988342404E-2,1.381301880E-2
1.886636966E1,1.403129660E-3,2.845476568E-2,-1.467895508E-2
1.887640995E1,2.887026593E-2,-1.975700259E-2,-4.903793335E-3
1.888641971E1,-7.163088024E-2,-5.530640483E-3,4.583358765E-3
1.889646000E1,-4.941559397E-3,1.318113506E-2,2.812957764E-2
1.890646976E1,-4.276186228E-2,-2.475908399E-2,3.843307495E-3
1.891647953E1,-5.587211251E-2,-5.308181047E-3,3.199481964E-2
1.892651981E1,-1.153797004E-2,4.743991792E-2,7.966995239E-3
1.893652958E1,5.603824183E-2,2.845251560E-2,-1.589679718E-2
1.894653934E1,5.126874149E-2,-3.258499503E-2,1.766204834E-2
1.895654911E1,1.365396753E-2,-3.100290895E-3,3.153610229E-2
1.896658939E1,4.745739978E-3,2.551299334E-2,2.161312103E-2
1.897662968E1,3.365424275E-2,4.445269704E-2,2.732276917E-3
1.898663944E1,-1.358814910E-2,6.489500403E-3,7.128715515E-3
1.899667972E1,-2.282364666E-2,1.730754972E-3,-5.419254303E-2
1.900668949E1,-3.255813569E-2,3.482416272E-2,3.559112549E-3
1.901669926E1,-1.401310228E-2,-1.808682084E-2,-1.257896423E-3
1.902673954E1,-5.306426063E-2,-2.260312438E-2,2.693557739E-2
1.903674930E1,-3.397274390E-2,1.529248059E-2,4.568672180E-2
1.904675907E1,4.066652618E-3,-2.749671042E-2,1.172351837E-2
1.905679935E1,5.150244758E-2,-1.697705686E-2,-2.880096436E-3
1.906680912E1,-6.898213178E-4,-1.132282615E-2,1.598262787E-2
1.907684940E1,-4.575681407E-3,1.321561635E-2,2.996635437E-2
1.908685917E1,-3.689493984E-3,4.197737575E-2,-2.275562286E-2
1.909686893E1,1.467946917E-3,6.043696404E-2,-2.241325378E-2
1.910690922E1,-3.756062314E-2,1.671172678E-2,-2.196311951E-2
1.911691898E1,-5.251367763E-2,1.571457088E-2,-2.615928650E-3
1.912692875E1,-1.551007852E-2,1.931983232E-2,2.483367920E-3
1.913696903E1,-7.372722961E-3,-1.981477439E-2,1.652240753E-2
1.914697880E1,-2.295870706E-2,-1.524475217E-2,4.923248291E-2
1.915701908E1,-4.436361603E-3,-6.109327078E-3,3.904628754E-2
1.916702884E1,-3.255025297E-2,-7.176549733E-2,5.782985687E-2
1.917703861E1,1.662206650E-2,-6.021870673E-2,-9.393692017E-3
1.918704838E1,1.731685363E-2,1.711373031E-2,1.938152313E-2
1.919708866E1,3.243554384E-2,-6.508409977E-3,-2.340602875E-2
1.920709842E1,-1.293536276E-3,4.577662051E-2,-1.343345642E-2
1.921713871E1,-2.958279662E-2,4.976800084E-2,-5.112743378E-2
1.922714847E1,-3.908457607E-2,6.759124994E-2,-4.101753235E-2
1.923715824E1,2.910603769E-3,-6.325542927E-4,-1.196956635E-2
1.924719852E1,-7.381765544E-2,-1.516324282E-2,6.937026978E-3
1.925720829E1,-2.585005388E-2,-5.592614412E-3,7.291316986E-2
1.926721805E1,-1.642344892E-2,4.258841276E-3,-1.796722412E-2
1.927725834E1,1.209173165E-2,-5.707854033E-2,6.286334991E-2
1.928726810E1,7.305468433E-3,1.040153205E-2,-8.965492249E-3
1.929727787E1,-2.088539489E-2,1.053500175E-2,-1.371955872E-2
1.930731815E1,-3.015279397E-2,-3.557384014E-3,1.496887207E-2
1.931732792E1,-2.930753678E-2,2.549640834E-2,-1.839542389E-2
1.932736820E1,4.236641899E-2,1.059522480E-1,5.458831787E-3
1.933737797E1,4.170797765E-2,1.481316984E-2,-4.010200500E-3
1.934741825E1,-1.108301524E-2,9.496614337E-3,1.981353760E-2
1.935742802E1,-3.959320113E-2,9.445756674E-3,5.308151245E-3
1.936743778E1,-3.446619958E-2,5.162662268E-2,3.327751160E-2
1.937747806E1,-1.979800686E-2,-3.906626999E-2,9.222984314E-3
1.938748783E1,8.921938017E-3,-3.352668881E-2,-4.692077637E-4
1.939749760E1,-1.046513114E-2,-4.745706916E-3,-4.196166992E-4
1.940753788E1,-8.189672977E-2,-5.181281269E-2,1.871585846E-2
1.941754764E1,-6.208538264E-2,-2.690321207E-2,1.369953156E-2
1.942758793E1,1.002602279E-2,4.006238282E-2,8.686065674E-3
1.943759769E1,1.013938151E-2,-1.651898026E-2,-1.522827148E-2
1.944760746E1,-2.229287475E-2,-2.998438478E-2,-1.449012756E-2
1.945764774E1,-2.213778906E-2,4.646967351E-2,-7.095336914E-2
1.946765751E1,1.678921282E-3,3.617790341E-2,3.402137756E-2
1.947769779E1,-4.575442150E-2,-2.552907169E-2,-4.179954529E-3
1.948770756E1,-7.526638918E-3,2.713680267E-2,-3.238868713E-2
1.949774784E1,-7.796789519E-3,-1.127466559E-3,-8.063316345E-3
1.950775760E1,-2.170121670E-2,-3.362357616E-2,2.487087250E-2
1.951776737E1,-6.657472812E-3,4.985675216E-3,2.933597565E-2
1.952777714E1,-1.340180403E-3,-1.298490167E-2,9.836196899E-3
1.953781742E1,4.066860303E-3,2.161553502E-2,-1.844406128E-2
1.954782719E1,-4.805225879E-3,3.200286627E-2,3.387928009E-2
1.955786747E1,-3.963992931E-3,4.213865101E-2,4.965782166E-3
1.956787723E1,3.008987010E-2,3.297570348E-2,-4.246711731E-2
1.957788700E1,-2.228604071E-2,7.125250995E-2,-2.771091461E-2
1.958789676E1,-2.700920962E-2,8.465781808E-3,-3.670215607E-2
1.959796756E1,-8.641909808E-3,7.798835635E-3,-2.700901031E-2
1.960797733E1,-3.314511850E-2,1.128464937E-2,3.009510040E-2
1.961798710E1,-1.033511944E-2,1.021298766E-2,1.167297363E-3
1.962802738E1,1.698262990E-2,-9.560555220E-3,1.071739197E-2
1.963803715E1,-3.930359147E-3,-1.019465923E-2,4.369163513E-2
1.964804691E1,-6.219339371E-2,-3.439129889E-2,1.929473877E-2
1.965805668E1,-4.802186042E-2,3.177271783E-2,3.293323517E-2
1.966809696E1,3.826377913E-3,1.249741018E-2,3.710174561E-2
1.967810673E1,-1.083118096E-2,1.756104827E-2,3.641319275E-2
1.968814701E1,-5.965500139E-3,4.171149433E-2,7.604598999E-3
1.969815677E1,-2.051620744E-2,3.231231868E-2,-4.474735260E-2
1.970816654E1,7.612928748E-3,8.200287819E-3,-1.087665558E-2
1.971820682E1,6.485634483E-3,8.089587092E-3,-1.065826416E-2
1.972821659E1,-9.034967981E-3,-6.371524930E-2,2.761268616E-2
1.973822635E1,-4.116396606E-2,-1.507456601E-2,1.024627686E-1
1.974823612E1,-2.515602671E-2,3.806613386E-2,-2.664566040E-2
1.975827640E1,3.353254870E-2,2.415563166E-2,-1.672554016E-2
1.976828617E1,-2.333732136E-2,5.775675178E-3,-1.639366150E-2
1.977832645E1,1.082445495E-2,2.071115375E-2,2.650260925E-2
1.978833622E1,-1.277700067E-2,4.517298937E-2,7.206916809E-3
1.979837650E1,-7.655129302E-3,2.217870951E-2,7.108688354E-3
1.980838627E1,-3.097343072E-2,2.839359641E-2,1.640033722E-2
1.981839603E1,7.987912744E-3,-4.598727822E-2,6.534576416E-3
1.982843632E1,-2.951616980E-2,-1.039564610E-2,-3.138256073E-2
1.983844608E1,-6.182887405E-2,-3.213417530E-2,-2.148914337E-2
1.984845585E1,2.519522049E-2,-3.992773592E-2,2.395629883E-3
1.985849613E1,-2.658990212E-2,4.505708814E-3,-7.127761841E-3
1.986850590E1,2.174730413E-2,-8.485138416E-3,1.205635071E-2
1.987863773E1,3.385463264E-3,-2.147063613E-2,2.643299103E-2
1.988864750E1,-5.932135973E-4,3.934368491E-3,1.657485962E-2
1.990360111E1,1.943409070E-2,2.599100769E-2,1.603031158E-2
1.991364139E1,9.691021405E-4,-1.480728388E-4,2.538299561E-2
1.992365116E1,-3.182407469E-2,-1.105014980E-2,-3.313064575E-3
1.993369144E1,-1.708206534E-2,1.619672775E-2,-2.194976807E-2
1.994373173E1,-6.387261301E-2,2.072155476E-4,2.013206482E-3
1.995374149E1,-2.986040339E-2,-6.438255310E-3,2.098083496E-2
1.996375126E1,-2.014712617E-2,6.011247635E-3,3.965568542E-2
1.997376102E1,-2.891455032E-2,1.032806933E-2,5.316638947E-2
1.998380131E1,-1.838447899E-2,-1.186795533E-2,1.045274734E-1
1.999381107E1,3.378302976E-2,2.081441879E-2,8.897876740E-2
2.000385135E1,-3.937379271E-2,4.222261906E-2,1.396589279E-1
2.001386112E1,4.151335731E-2,-4.847486317E-2,-4.122734070E-3
2.002390140E1,-3.101730719E-3,-5.173435807E-2,1.530265808E-2
2.003391117E1,5.488014780E-3,-7.744371891E-3,-3.643131256E-2
